"Partner","Trial","PlayerResp","RT","PartnerResp","CoopRate","SocRep","index","Rating","ID"
"A",38,0,325,1,30,"High",5003,5,1
"A",41,1,565,0,30,"High",5006,5,1
"A",85,0,416,0,30,"High",5049,5,1
"A",50,1,193,0,30,"High",5014,5,1
"A",79,1,279,0,30,"High",5043,5,1
"A",76,1,18111,0,30,"High",5040,5,1
"A",81,1,148,0,30,"High",5045,5,1
"A",20,0,720,0,30,"High",4985,5,1
"A",92,1,353,1,30,"High",5056,5,1
"A",10,0,218,0,30,"High",4975,5,1
"A",14,1,1166,0,30,"High",4979,5,1
"A",53,1,848,0,30,"High",5017,5,1
"A",4,1,976,0,30,"High",4969,5,1
"A",45,1,1011,0,30,"High",5009,5,1
"A",6,1,1392,0,30,"High",4971,5,1
"A",61,0,18546,0,30,"High",5025,5,1
"A",100,0,42,0,30,"High",5063,5,1
"A",67,1,229,1,30,"High",5031,5,1
"A",27,0,327,1,30,"High",4992,5,1
"A",69,1,221,0,30,"High",5033,5,1
"A",24,0,250,1,30,"High",4989,5,1
"A",30,1,378,1,30,"High",4995,5,1
"A",34,0,61,0,30,"High",4999,5,1
"A",57,1,464,0,30,"High",5021,5,1
"B",89,1,536,1,70,"Low",5053,5,1
"B",8,0,617,0,70,"Low",4973,5,1
"B",52,1,273,1,70,"Low",5016,5,1
"B",1,1,9406,1,70,"Low",4966,5,1
"B",35,1,215,1,70,"Low",5000,5,1
"B",46,0,289,1,70,"Low",5010,5,1
"B",86,0,435,0,70,"Low",5050,5,1
"B",32,0,214,1,70,"Low",4997,5,1
"B",73,1,294,1,70,"Low",5037,5,1
"B",99,1,207,0,70,"Low",5062,5,1
"B",19,0,647,0,70,"Low",4984,5,1
"B",82,1,118,1,70,"Low",5046,5,1
"B",21,1,229,1,70,"Low",4986,5,1
"B",39,0,209,0,70,"Low",5004,5,1
"B",80,0,173,1,70,"Low",5044,5,1
"B",55,0,305,1,70,"Low",5019,5,1
"B",68,0,355,1,70,"Low",5032,5,1
"B",70,1,271,1,70,"Low",5034,5,1
"B",16,1,465,1,70,"Low",4981,5,1
"B",58,0,226,0,70,"Low",5022,5,1
"B",63,0,775,1,70,"Low",5027,5,1
"B",95,0,574,0,70,"Low",5059,5,1
"B",12,0,511,1,70,"Low",4977,5,1
"B",25,0,651,1,70,"Low",4990,5,1
"C",78,1,110,0,30,"Low",5042,5,1
"C",48,1,234,0,30,"Low",5012,5,1
"C",62,0,867,0,30,"Low",5026,5,1
"C",43,0,411,1,30,"Low",5008,5,1
"C",36,0,278,0,30,"Low",5001,5,1
"C",11,0,45,1,30,"Low",4976,5,1
"C",51,1,64,0,30,"Low",5015,5,1
"C",93,1,499,0,30,"Low",5057,5,1
"C",90,1,596,0,30,"Low",5054,5,1
"C",15,1,1474,0,30,"Low",4980,5,1
"C",3,0,938,0,30,"Low",4968,5,1
"C",88,1,292,0,30,"Low",5052,5,1
"C",40,1,98,0,30,"Low",5005,5,1
"C",18,0,282,0,30,"Low",4983,5,1
"C",60,0,24309,0,30,"Low",5024,5,1
"C",31,1,492,1,30,"Low",4996,5,1
"C",56,0,419,0,30,"Low",5020,5,1
"C",22,0,279,0,30,"Low",4987,5,1
"C",65,1,641,1,30,"Low",5029,5,1
"C",72,0,562,0,30,"Low",5036,5,1
"C",97,1,828,0,30,"Low",5060,5,1
"C",5,0,2753,1,30,"Low",4970,5,1
"C",28,1,224,0,30,"Low",4993,5,1
"C",74,1,418,1,30,"Low",5038,5,1
"C",83,0,1667,0,30,"Low",5047,5,1
"D",37,1,278,1,70,"High",5002,5,1
"D",47,1,179,1,70,"High",5011,5,1
"D",77,0,152,0,70,"High",5041,5,1
"D",94,1,310,1,70,"High",5058,5,1
"D",91,0,233,1,70,"High",5055,5,1
"D",9,0,353,0,70,"High",4974,5,1
"D",7,0,950,0,70,"High",4972,5,1
"D",26,1,270,1,70,"High",4991,5,1
"D",71,1,1256,1,70,"High",5035,5,1
"D",87,1,246,0,70,"High",5051,5,1
"D",2,1,7485,1,70,"High",4967,5,1
"D",49,0,73,1,70,"High",5013,5,1
"D",98,0,284,1,70,"High",5061,5,1
"D",66,0,1061,0,70,"High",5030,5,1
"D",75,0,837,0,70,"High",5039,5,1
"D",64,1,781,0,70,"High",5028,5,1
"D",23,1,289,1,70,"High",4988,5,1
"D",29,0,383,1,70,"High",4994,5,1
"D",84,1,32,1,70,"High",5048,5,1
"D",33,1,211,0,70,"High",4998,5,1
"D",59,1,229,1,70,"High",5023,5,1
"D",17,1,1352,1,70,"High",4982,5,1
"D",13,1,1119,1,70,"High",4978,5,1
"D",54,1,73,1,70,"High",5018,5,1
"D",42,1,549,1,70,"High",5007,5,1
"A",42,0,1246,0,30,"High",1036,1,2
"A",2,1,2323,0,30,"High",997,1,2
"A",68,1,368,0,30,"High",1062,1,2
"A",95,1,410,0,30,"High",1089,1,2
"A",27,0,898,0,30,"High",1022,1,2
"A",34,1,405,0,30,"High",1029,1,2
"A",92,0,672,0,30,"High",1086,1,2
"A",54,0,1467,1,30,"High",1048,1,2
"A",99,0,742,0,30,"High",1093,1,2
"A",5,1,12045,0,30,"High",1000,1,2
"A",45,1,370,0,30,"High",1039,1,2
"A",30,1,418,1,30,"High",1025,1,2
"A",85,1,384,0,30,"High",1079,1,2
"A",82,0,651,1,30,"High",1076,1,2
"A",72,0,1145,0,30,"High",1066,1,2
"A",76,1,750,0,30,"High",1070,1,2
"A",20,1,2657,0,30,"High",1015,1,2
"A",16,1,1288,0,30,"High",1011,1,2
"A",79,0,676,0,30,"High",1073,1,2
"A",50,0,1732,0,30,"High",1044,1,2
"A",64,1,426,0,30,"High",1058,1,2
"A",37,1,297,1,30,"High",1032,1,2
"A",9,0,959,0,30,"High",1004,1,2
"A",59,1,1340,0,30,"High",1053,1,2
"A",22,0,740,0,30,"High",1017,1,2
"B",69,1,383,1,70,"Low",1063,4,2
"B",3,1,21560,1,70,"Low",998,4,2
"B",8,1,881,1,70,"Low",1003,4,2
"B",29,1,633,1,70,"Low",1024,4,2
"B",41,1,2477,1,70,"Low",1035,4,2
"B",83,1,734,0,70,"Low",1077,4,2
"B",88,1,1364,0,70,"Low",1082,4,2
"B",57,0,1367,1,70,"Low",1051,4,2
"B",26,1,855,1,70,"Low",1021,4,2
"B",24,1,923,1,70,"Low",1019,4,2
"B",55,1,412,1,70,"Low",1049,4,2
"B",75,1,33603,1,70,"Low",1069,4,2
"B",77,1,819,1,70,"Low",1071,4,2
"B",46,1,1022,1,70,"Low",1040,4,2
"B",91,1,1268,1,70,"Low",1085,4,2
"B",17,1,818,0,70,"Low",1012,4,2
"B",39,0,1088,1,70,"Low",1034,4,2
"B",49,1,690,1,70,"Low",1043,4,2
"B",11,0,771,1,70,"Low",1006,4,2
"B",36,1,273,0,70,"Low",1031,4,2
"B",96,1,315,0,70,"Low",1090,4,2
"B",65,1,560,0,70,"Low",1059,4,2
"B",13,0,1114,1,70,"Low",1008,4,2
"B",100,1,416,1,70,"Low",1094,4,2
"B",62,1,1025,1,70,"Low",1056,4,2
"C",44,0,726,1,30,"Low",1038,2,2
"C",70,1,671,0,30,"Low",1064,2,2
"C",87,1,677,0,30,"Low",1081,2,2
"C",94,1,608,0,30,"Low",1088,2,2
"C",73,1,381,0,30,"Low",1067,2,2
"C",98,0,901,1,30,"Low",1092,2,2
"C",28,1,495,0,30,"Low",1023,2,2
"C",6,1,1228,0,30,"Low",1001,2,2
"C",80,0,853,1,30,"Low",1074,2,2
"C",12,1,641,1,30,"Low",1007,2,2
"C",60,1,822,0,30,"Low",1054,2,2
"C",1,0,39764,0,30,"Low",996,2,2
"C",56,1,1233,1,30,"Low",1050,2,2
"C",32,1,571,0,30,"Low",1027,2,2
"C",35,1,325,0,30,"Low",1030,2,2
"C",84,1,4058,0,30,"Low",1078,2,2
"C",48,1,679,0,30,"Low",1042,2,2
"C",63,0,775,0,30,"Low",1057,2,2
"C",66,1,264,0,30,"Low",1060,2,2
"C",15,1,844,0,30,"Low",1010,2,2
"C",21,1,956,1,30,"Low",1016,2,2
"C",18,1,862,0,30,"Low",1013,2,2
"C",90,0,15567,0,30,"Low",1084,2,2
"C",52,0,26049,0,30,"Low",1046,2,2
"D",71,1,265,1,70,"High",1065,1,2
"D",7,0,1160,0,70,"High",1002,1,2
"D",74,1,424,1,70,"High",1068,1,2
"D",43,1,466,1,70,"High",1037,1,2
"D",4,0,1511,1,70,"High",999,1,2
"D",78,0,776,1,70,"High",1072,1,2
"D",86,1,227,0,70,"High",1080,1,2
"D",14,0,423,1,70,"High",1009,1,2
"D",33,1,259,1,70,"High",1028,1,2
"D",97,1,314,1,70,"High",1091,1,2
"D",89,1,1143,1,70,"High",1083,1,2
"D",47,1,3153,0,70,"High",1041,1,2
"D",38,1,13143,1,70,"High",1033,1,2
"D",19,1,400,1,70,"High",1014,1,2
"D",81,0,677,1,70,"High",1075,1,2
"D",25,1,1423,0,70,"High",1020,1,2
"D",31,1,821,0,70,"High",1026,1,2
"D",51,1,808,1,70,"High",1045,1,2
"D",23,1,792,1,70,"High",1018,1,2
"D",61,1,308,1,70,"High",1055,1,2
"D",10,0,715,0,70,"High",1005,1,2
"D",58,1,402,1,70,"High",1052,1,2
"D",67,1,259,0,70,"High",1061,1,2
"D",93,1,775,0,70,"High",1087,1,2
"D",53,1,1233,1,70,"High",1047,1,2
"A",95,0,300,1,30,"High",3671,0,3
"A",28,1,1323,0,30,"High",3604,0,3
"A",54,1,456,1,30,"High",3630,0,3
"A",52,1,730,0,30,"High",3628,0,3
"A",6,0,3032,1,30,"High",3582,0,3
"A",46,0,4223,0,30,"High",3622,0,3
"A",38,1,1411,0,30,"High",3614,0,3
"A",87,0,116,0,30,"High",3663,0,3
"A",92,0,362,1,30,"High",3668,0,3
"A",16,0,2995,1,30,"High",3592,0,3
"A",58,0,1045,0,30,"High",3634,0,3
"A",78,0,466,0,30,"High",3654,0,3
"A",3,1,2050,1,30,"High",3579,0,3
"A",19,1,2346,0,30,"High",3595,0,3
"A",73,1,1106,0,30,"High",3649,0,3
"A",98,0,210,0,30,"High",3674,0,3
"A",43,0,1148,0,30,"High",3619,0,3
"A",10,1,1223,0,30,"High",3586,0,3
"A",81,0,693,0,30,"High",3657,0,3
"A",35,0,1372,0,30,"High",3611,0,3
"A",21,1,4623,0,30,"High",3597,0,3
"A",69,0,1125,1,30,"High",3645,0,3
"A",66,0,436,0,30,"High",3642,0,3
"A",61,1,425,1,30,"High",3637,0,3
"A",32,0,945,1,30,"High",3608,0,3
"B",83,0,869,1,70,"Low",3659,0,3
"B",76,1,296,1,70,"Low",3652,0,3
"B",34,0,489,1,70,"Low",3610,0,3
"B",37,1,1277,1,70,"Low",3613,0,3
"B",24,0,853,0,70,"Low",3600,0,3
"B",96,0,393,0,70,"Low",3672,0,3
"B",15,1,2021,1,70,"Low",3591,0,3
"B",1,0,7873,0,70,"Low",3577,0,3
"B",85,1,420,1,70,"Low",3661,0,3
"B",44,1,1154,1,70,"Low",3620,0,3
"B",7,1,6904,1,70,"Low",3583,0,3
"B",89,1,336,1,70,"Low",3665,0,3
"B",55,0,1018,1,70,"Low",3631,0,3
"B",50,0,567,1,70,"Low",3626,0,3
"B",11,0,3439,1,70,"Low",3587,0,3
"B",80,1,521,1,70,"Low",3656,0,3
"B",47,1,960,0,70,"Low",3623,0,3
"B",65,1,832,1,70,"Low",3641,0,3
"B",63,1,765,1,70,"Low",3639,0,3
"B",57,0,602,0,70,"Low",3633,0,3
"B",26,0,1066,1,70,"Low",3602,0,3
"B",17,0,3255,0,70,"Low",3593,0,3
"B",72,0,372,1,70,"Low",3648,0,3
"B",99,0,191,1,70,"Low",3675,0,3
"B",30,0,565,1,70,"Low",3606,0,3
"C",14,1,19248,0,30,"Low",3590,0,3
"C",53,0,680,0,30,"Low",3629,0,3
"C",79,1,365,0,30,"Low",3655,0,3
"C",48,0,1001,0,30,"Low",3624,0,3
"C",86,0,273,0,30,"Low",3662,0,3
"C",97,0,30,0,30,"Low",3673,0,3
"C",41,0,970,0,30,"Low",3617,0,3
"C",12,0,1295,0,30,"Low",3588,0,3
"C",39,0,1536,0,30,"Low",3615,0,3
"C",64,1,2596,0,30,"Low",3640,0,3
"C",8,0,3407,0,30,"Low",3584,0,3
"C",27,0,680,1,30,"Low",3603,0,3
"C",67,1,654,0,30,"Low",3643,0,3
"C",84,0,275,1,30,"Low",3660,0,3
"C",93,0,258,0,30,"Low",3669,0,3
"C",29,0,932,0,30,"Low",3605,0,3
"C",70,0,356,0,30,"Low",3646,0,3
"C",90,0,429,0,30,"Low",3666,0,3
"C",4,0,3972,1,30,"Low",3580,0,3
"C",51,0,596,0,30,"Low",3627,0,3
"C",33,0,435,1,30,"Low",3609,0,3
"C",75,0,9893,0,30,"Low",3651,0,3
"C",20,1,3826,1,30,"Low",3596,0,3
"C",60,0,791,0,30,"Low",3636,0,3
"C",22,0,1652,0,30,"Low",3598,0,3
"D",13,1,1359,1,70,"High",3589,0,3
"D",9,0,1600,0,70,"High",3585,0,3
"D",2,0,3222,1,70,"High",3578,0,3
"D",94,1,318,1,70,"High",3670,0,3
"D",88,0,243,1,70,"High",3664,0,3
"D",77,0,4029,1,70,"High",3653,0,3
"D",23,1,913,1,70,"High",3599,0,3
"D",31,1,880,1,70,"High",3607,0,3
"D",62,0,10890,1,70,"High",3638,0,3
"D",42,1,1349,1,70,"High",3618,0,3
"D",25,1,1016,1,70,"High",3601,0,3
"D",68,1,930,1,70,"High",3644,0,3
"D",18,1,1223,1,70,"High",3594,0,3
"D",59,1,665,0,70,"High",3635,0,3
"D",5,1,4491,1,70,"High",3581,0,3
"D",91,0,784,0,70,"High",3667,0,3
"D",56,1,969,1,70,"High",3632,0,3
"D",36,1,843,0,70,"High",3612,0,3
"D",74,1,642,1,70,"High",3650,0,3
"D",45,0,7088,1,70,"High",3621,0,3
"D",100,1,273,0,70,"High",3676,0,3
"D",40,1,492,1,70,"High",3616,0,3
"D",49,0,408,1,70,"High",3625,0,3
"D",82,1,653,1,70,"High",3658,0,3
"D",71,1,844,1,70,"High",3647,0,3
"A",23,0,7410,0,30,"High",3698,1,4
"A",38,1,1696,0,30,"High",3713,1,4
"A",64,1,1823,1,30,"High",3739,1,4
"A",89,1,1119,1,30,"High",3763,1,4
"A",67,0,2116,0,30,"High",3742,1,4
"A",78,0,123,0,30,"High",3752,1,4
"A",29,0,1407,0,30,"High",3704,1,4
"A",60,1,1713,0,30,"High",3735,1,4
"A",35,1,1052,1,30,"High",3710,1,4
"A",47,0,5129,1,30,"High",3722,1,4
"A",87,0,193,0,30,"High",3761,1,4
"A",7,1,3615,1,30,"High",3682,1,4
"A",16,0,3119,0,30,"High",3691,1,4
"A",50,0,3397,1,30,"High",3725,1,4
"A",25,1,841,0,30,"High",3700,1,4
"A",69,1,4146,0,30,"High",3743,1,4
"A",41,1,7708,0,30,"High",3716,1,4
"A",18,0,2571,0,30,"High",3693,1,4
"A",12,1,1628,0,30,"High",3687,1,4
"A",94,1,438,1,30,"High",3768,1,4
"A",74,0,8,0,30,"High",3748,1,4
"A",81,0,99,1,30,"High",3755,1,4
"A",98,0,276,0,30,"High",3772,1,4
"A",55,1,2411,1,30,"High",3730,1,4
"B",75,0,884,1,70,"Low",3749,2,4
"B",46,1,1486,1,70,"Low",3721,2,4
"B",22,1,4714,1,70,"Low",3697,2,4
"B",8,0,3547,1,70,"Low",3683,2,4
"B",36,1,2708,0,70,"Low",3711,2,4
"B",28,1,3777,1,70,"Low",3703,2,4
"B",77,0,368,1,70,"Low",3751,2,4
"B",88,0,179,1,70,"Low",3762,2,4
"B",17,1,1671,1,70,"Low",3692,2,4
"B",61,0,1781,0,70,"Low",3736,2,4
"B",39,1,2359,1,70,"Low",3714,2,4
"B",32,0,1012,0,70,"Low",3707,2,4
"B",59,1,1214,0,70,"Low",3734,2,4
"B",3,0,1639,1,70,"Low",3678,2,4
"B",90,0,919,1,70,"Low",3764,2,4
"B",95,1,620,1,70,"Low",3769,2,4
"B",44,0,1068,1,70,"Low",3719,2,4
"B",71,0,1765,0,70,"Low",3745,2,4
"B",53,1,6782,0,70,"Low",3728,2,4
"B",11,0,5773,1,70,"Low",3686,2,4
"B",51,1,8389,1,70,"Low",3726,2,4
"B",99,0,152,1,70,"Low",3773,2,4
"B",15,1,1638,1,70,"Low",3690,2,4
"B",83,0,106,0,70,"Low",3757,2,4
"C",5,0,19233,0,30,"Low",3680,2,4
"C",58,1,903,0,30,"Low",3733,2,4
"C",34,0,1362,1,30,"Low",3709,2,4
"C",65,0,10585,0,30,"Low",3740,2,4
"C",26,1,4622,1,30,"Low",3701,2,4
"C",62,0,1755,0,30,"Low",3737,2,4
"C",20,1,1482,0,30,"Low",3695,2,4
"C",85,0,653,0,30,"Low",3759,2,4
"C",31,0,11499,1,30,"Low",3706,2,4
"C",73,0,534,0,30,"Low",3747,2,4
"C",56,0,1373,0,30,"Low",3731,2,4
"C",70,1,4486,0,30,"Low",3744,2,4
"C",52,0,2496,0,30,"Low",3727,2,4
"C",24,0,2647,0,30,"Low",3699,2,4
"C",48,0,3821,1,30,"Low",3723,2,4
"C",14,0,2150,0,30,"Low",3689,2,4
"C",96,1,340,0,30,"Low",3770,2,4
"C",2,0,6670,0,30,"Low",3677,2,4
"C",100,0,55,0,30,"Low",3774,2,4
"C",43,0,1015,0,30,"Low",3718,2,4
"C",40,0,2004,0,30,"Low",3715,2,4
"C",92,1,853,1,30,"Low",3766,2,4
"C",79,0,285,1,30,"Low",3753,2,4
"C",10,0,3459,0,30,"Low",3685,2,4
"C",82,0,212,0,30,"Low",3756,2,4
"D",37,1,1765,1,70,"High",3712,1,4
"D",21,0,2026,1,70,"High",3696,1,4
"D",4,1,7036,1,70,"High",3679,1,4
"D",66,0,1887,1,70,"High",3741,1,4
"D",63,1,1245,1,70,"High",3738,1,4
"D",6,1,4092,1,70,"High",3681,1,4
"D",76,1,1284,0,70,"High",3750,1,4
"D",45,1,1927,0,70,"High",3720,1,4
"D",19,1,1490,0,70,"High",3694,1,4
"D",49,1,1787,1,70,"High",3724,1,4
"D",80,0,303,1,70,"High",3754,1,4
"D",57,0,1237,0,70,"High",3732,1,4
"D",9,1,2488,1,70,"High",3684,1,4
"D",27,1,1587,1,70,"High",3702,1,4
"D",91,1,658,1,70,"High",3765,1,4
"D",84,0,335,0,70,"High",3758,1,4
"D",72,1,1300,0,70,"High",3746,1,4
"D",86,0,164,1,70,"High",3760,1,4
"D",33,0,3965,1,70,"High",3708,1,4
"D",13,0,2047,0,70,"High",3688,1,4
"D",97,0,939,1,70,"High",3771,1,4
"D",42,1,949,1,70,"High",3717,1,4
"D",93,1,411,1,70,"High",3767,1,4
"D",54,1,1238,1,70,"High",3729,1,4
"D",30,1,2571,1,70,"High",3705,1,4
"A",26,1,5099,1,30,"High",4595,3,5
"A",69,1,261,0,30,"High",4638,3,5
"A",33,0,247,0,30,"High",4602,3,5
"A",29,1,191,0,30,"High",4598,3,5
"A",38,1,187,1,30,"High",4607,3,5
"A",76,0,310,0,30,"High",4645,3,5
"A",23,1,8271,1,30,"High",4592,3,5
"A",59,1,74,1,30,"High",4628,3,5
"A",19,1,2285,0,30,"High",4588,3,5
"A",98,1,296,1,30,"High",4665,3,5
"A",85,1,150,0,30,"High",4653,3,5
"A",79,1,835,0,30,"High",4647,3,5
"A",81,0,172,0,30,"High",4649,3,5
"A",64,0,132,0,30,"High",4633,3,5
"A",66,1,504,0,30,"High",4635,3,5
"A",11,0,1306,0,30,"High",4580,3,5
"A",52,1,113,0,30,"High",4621,3,5
"A",91,1,167,0,30,"High",4659,3,5
"A",55,1,176,0,30,"High",4624,3,5
"A",16,0,601,1,30,"High",4585,3,5
"A",44,1,372,1,30,"High",4613,3,5
"A",48,1,225,1,30,"High",4617,3,5
"A",8,1,702,0,30,"High",4577,3,5
"B",30,1,205,1,70,"Low",4599,3,5
"B",71,0,246,0,70,"Low",4640,3,5
"B",53,0,202,0,70,"Low",4622,3,5
"B",77,0,208,1,70,"Low",4646,3,5
"B",74,0,229,1,70,"Low",4643,3,5
"B",5,1,2006,1,70,"Low",4574,3,5
"B",61,0,218,1,70,"Low",4630,3,5
"B",24,1,6035,1,70,"Low",4593,3,5
"B",50,1,24,1,70,"Low",4619,3,5
"B",27,1,988,1,70,"Low",4596,3,5
"B",2,0,1766,0,70,"Low",4571,3,5
"B",90,1,103,1,70,"Low",4658,3,5
"B",15,1,787,1,70,"Low",4584,3,5
"B",43,1,72,1,70,"Low",4612,3,5
"B",99,1,175,0,70,"Low",4666,3,5
"B",35,1,416,1,70,"Low",4604,3,5
"B",20,1,1364,1,70,"Low",4589,3,5
"B",96,1,598,1,70,"Low",4663,3,5
"B",65,1,176,0,70,"Low",4634,3,5
"B",37,1,248,1,70,"Low",4606,3,5
"B",87,1,169,1,70,"Low",4655,3,5
"B",82,0,98,0,70,"Low",4650,3,5
"B",47,1,5270,1,70,"Low",4616,3,5
"B",9,1,1589,1,70,"Low",4578,3,5
"B",57,1,91,1,70,"Low",4626,3,5
"C",72,0,326,1,30,"Low",4641,3,5
"C",100,0,224,0,30,"Low",4667,3,5
"C",83,0,49,0,30,"Low",4651,3,5
"C",28,1,329,1,30,"Low",4597,3,5
"C",21,0,2036,1,30,"Low",4590,3,5
"C",34,1,388,1,30,"Low",4603,3,5
"C",75,0,122,1,30,"Low",4644,3,5
"C",7,0,1225,1,30,"Low",4576,3,5
"C",80,1,146,0,30,"Low",4648,3,5
"C",3,0,2891,0,30,"Low",4572,3,5
"C",51,1,102,1,30,"Low",4620,3,5
"C",94,1,643,0,30,"Low",4661,3,5
"C",40,1,149,0,30,"Low",4609,3,5
"C",60,1,121,0,30,"Low",4629,3,5
"C",42,0,133,0,30,"Low",4611,3,5
"C",31,1,180,0,30,"Low",4600,3,5
"C",92,1,51,0,30,"Low",4660,3,5
"C",68,1,162,0,30,"Low",4637,3,5
"C",63,1,33,0,30,"Low",4632,3,5
"C",10,1,747,0,30,"Low",4579,3,5
"C",17,0,743,1,30,"Low",4586,3,5
"C",56,0,223,1,30,"Low",4625,3,5
"C",88,1,45,1,30,"Low",4656,3,5
"C",46,1,382,1,30,"Low",4615,3,5
"C",13,1,1348,0,30,"Low",4582,3,5
"D",25,1,655,1,70,"High",4594,3,5
"D",67,0,175,1,70,"High",4636,3,5
"D",84,0,10,0,70,"High",4652,3,5
"D",41,1,373,0,70,"High",4610,3,5
"D",86,1,316,1,70,"High",4654,3,5
"D",58,1,120,1,70,"High",4627,3,5
"D",32,1,239,1,70,"High",4601,3,5
"D",18,1,892,0,70,"High",4587,3,5
"D",22,1,186,1,70,"High",4591,3,5
"D",89,1,124,1,70,"High",4657,3,5
"D",49,1,181,1,70,"High",4618,3,5
"D",36,1,207,1,70,"High",4605,3,5
"D",70,1,215,0,70,"High",4639,3,5
"D",14,1,1053,1,70,"High",4583,3,5
"D",54,1,199,1,70,"High",4623,3,5
"D",45,1,519,1,70,"High",4614,3,5
"D",4,1,935,0,70,"High",4573,3,5
"D",6,1,953,1,70,"High",4575,3,5
"D",95,0,20,0,70,"High",4662,3,5
"D",62,1,120,1,70,"High",4631,3,5
"D",39,1,34,1,70,"High",4608,3,5
"D",12,1,886,1,70,"High",4581,3,5
"D",73,1,455,0,70,"High",4642,3,5
"D",97,1,229,0,70,"High",4664,3,5
"A",63,1,842,0,30,"High",6313,1,6
"A",33,1,4926,0,30,"High",6285,1,6
"A",76,1,1112,0,30,"High",6326,1,6
"A",66,1,583,1,30,"High",6316,1,6
"A",25,1,6949,1,30,"High",6277,1,6
"A",18,1,3837,0,30,"High",6270,1,6
"A",83,0,1168,1,30,"High",6333,1,6
"A",71,1,2666,0,30,"High",6321,1,6
"A",50,1,2153,0,30,"High",6301,1,6
"A",9,1,3365,0,30,"High",6261,1,6
"A",87,0,5523,0,30,"High",6337,1,6
"A",47,1,1149,0,30,"High",6298,1,6
"A",7,1,6045,0,30,"High",6259,1,6
"A",31,1,1789,0,30,"High",6283,1,6
"A",91,0,755,1,30,"High",6341,1,6
"A",79,0,1557,0,30,"High",6329,1,6
"A",93,0,964,1,30,"High",6343,1,6
"A",22,1,12068,1,30,"High",6274,1,6
"A",41,0,1752,0,30,"High",6293,1,6
"A",55,1,2319,0,30,"High",6306,1,6
"A",15,1,3613,1,30,"High",6267,1,6
"A",39,1,8650,1,30,"High",6291,1,6
"A",4,1,5778,0,30,"High",6256,1,6
"A",100,0,1028,1,30,"High",6350,1,6
"B",88,1,2117,1,70,"Low",6338,2,6
"B",10,0,4858,1,70,"Low",6262,2,6
"B",40,1,15925,1,70,"Low",6292,2,6
"B",5,1,4675,1,70,"Low",6257,2,6
"B",27,0,2950,1,70,"Low",6279,2,6
"B",3,0,5050,1,70,"Low",6255,2,6
"B",13,0,43253,0,70,"Low",6265,2,6
"B",17,1,3924,1,70,"Low",6269,2,6
"B",61,1,489,0,70,"Low",6311,2,6
"B",51,1,976,0,70,"Low",6302,2,6
"B",80,1,1506,0,70,"Low",6330,2,6
"B",90,0,1194,1,70,"Low",6340,2,6
"B",23,0,8304,0,70,"Low",6275,2,6
"B",29,1,1753,1,70,"Low",6281,2,6
"B",57,1,3620,0,70,"Low",6308,2,6
"B",68,0,709,1,70,"Low",6318,2,6
"B",82,0,1562,0,70,"Low",6332,2,6
"B",74,0,733,1,70,"Low",6324,2,6
"B",72,1,422,1,70,"Low",6322,2,6
"B",94,1,1293,1,70,"Low",6344,2,6
"B",36,0,1455,0,70,"Low",6288,2,6
"B",43,0,4860,1,70,"Low",6295,2,6
"B",54,1,519,1,70,"Low",6305,2,6
"B",98,0,1238,1,70,"Low",6348,2,6
"C",20,1,19973,1,30,"Low",6272,3,6
"C",46,1,3431,0,30,"Low",6297,3,6
"C",14,0,9343,0,30,"Low",6266,3,6
"C",2,0,2260,0,30,"Low",6254,3,6
"C",35,1,1490,0,30,"Low",6287,3,6
"C",60,0,738,0,30,"Low",6310,3,6
"C",32,1,3252,0,30,"Low",6284,3,6
"C",75,1,612,1,30,"Low",6325,3,6
"C",8,1,6027,0,30,"Low",6260,3,6
"C",49,1,3664,0,30,"Low",6300,3,6
"C",65,1,422,0,30,"Low",6315,3,6
"C",24,1,1229,0,30,"Low",6276,3,6
"C",38,0,2653,0,30,"Low",6290,3,6
"C",26,1,11664,1,30,"Low",6278,3,6
"C",86,1,1421,0,30,"Low",6336,3,6
"C",96,1,1399,0,30,"Low",6346,3,6
"C",42,1,3238,0,30,"Low",6294,3,6
"C",84,1,1297,1,30,"Low",6334,3,6
"C",53,0,1010,0,30,"Low",6304,3,6
"C",77,1,1624,1,30,"Low",6327,3,6
"C",89,0,1251,0,30,"Low",6339,3,6
"C",62,1,1172,1,30,"Low",6312,3,6
"C",99,1,1921,0,30,"Low",6349,3,6
"C",11,0,7304,0,30,"Low",6263,3,6
"C",70,0,720,0,30,"Low",6320,3,6
"D",1,1,4428,1,70,"High",6253,1,6
"D",56,0,2611,1,70,"High",6307,1,6
"D",85,0,1265,1,70,"High",6335,1,6
"D",44,1,6659,1,70,"High",6296,1,6
"D",73,1,532,1,70,"High",6323,1,6
"D",6,0,3972,1,70,"High",6258,1,6
"D",48,0,1546,0,70,"High",6299,1,6
"D",21,0,4094,0,70,"High",6273,1,6
"D",64,0,325,1,70,"High",6314,1,6
"D",92,0,1655,0,70,"High",6342,1,6
"D",52,1,673,0,70,"High",6303,1,6
"D",12,1,1424,0,70,"High",6264,1,6
"D",95,0,1414,1,70,"High",6345,1,6
"D",69,1,373,1,70,"High",6319,1,6
"D",28,0,5631,1,70,"High",6280,1,6
"D",16,1,6628,0,70,"High",6268,1,6
"D",59,1,658,1,70,"High",6309,1,6
"D",81,0,683,1,70,"High",6331,1,6
"D",19,0,17851,0,70,"High",6271,1,6
"D",37,1,690,1,70,"High",6289,1,6
"D",34,0,1919,1,70,"High",6286,1,6
"D",30,1,25100,0,70,"High",6282,1,6
"D",78,1,4616,1,70,"High",6328,1,6
"D",67,1,703,1,70,"High",6317,1,6
"D",97,1,1386,0,70,"High",6347,1,6
"A",84,1,859,0,30,"High",4157,1,7
"A",88,1,701,0,30,"High",4161,1,7
"A",90,1,668,0,30,"High",4163,1,7
"A",28,0,924,0,30,"High",4101,1,7
"A",13,1,1282,0,30,"High",4086,1,7
"A",71,1,669,0,30,"High",4144,1,7
"A",73,1,493,1,30,"High",4146,1,7
"A",77,1,870,0,30,"High",4150,1,7
"A",5,0,2795,1,30,"High",4078,1,7
"A",3,1,1260,0,30,"High",4076,1,7
"A",37,0,810,1,30,"High",4110,1,7
"A",50,1,1381,0,30,"High",4123,1,7
"A",34,1,816,0,30,"High",4107,1,7
"A",66,1,6516,0,30,"High",4139,1,7
"A",41,0,1827,0,30,"High",4114,1,7
"A",96,1,749,0,30,"High",4169,1,7
"A",18,1,842,0,30,"High",4091,1,7
"A",30,0,1229,0,30,"High",4103,1,7
"A",45,1,1047,0,30,"High",4118,1,7
"A",11,1,956,1,30,"High",4084,1,7
"A",61,1,712,0,30,"High",4134,1,7
"A",59,1,580,0,30,"High",4132,1,7
"A",56,0,1105,0,30,"High",4129,1,7
"A",24,1,1701,0,30,"High",4097,1,7
"A",99,1,798,0,30,"High",4172,1,7
"B",87,1,525,1,70,"Low",4160,1,7
"B",2,0,2086,1,70,"Low",4075,1,7
"B",69,1,959,0,70,"Low",4142,1,7
"B",44,0,524,0,70,"Low",4117,1,7
"B",54,0,372,1,70,"Low",4127,1,7
"B",46,0,771,1,70,"Low",4119,1,7
"B",27,0,842,1,70,"Low",4100,1,7
"B",74,0,921,0,70,"Low",4147,1,7
"B",92,1,740,1,70,"Low",4165,1,7
"B",81,0,562,0,70,"Low",4154,1,7
"B",40,0,573,0,70,"Low",4113,1,7
"B",52,0,491,1,70,"Low",4125,1,7
"B",67,0,484,1,70,"Low",4140,1,7
"B",14,0,867,0,70,"Low",4087,1,7
"B",94,0,598,1,70,"Low",4167,1,7
"B",8,0,908,0,70,"Low",4081,1,7
"B",31,0,553,0,70,"Low",4104,1,7
"B",10,0,860,1,70,"Low",4083,1,7
"B",62,0,508,0,70,"Low",4135,1,7
"B",79,1,1086,1,70,"Low",4152,1,7
"B",57,0,505,1,70,"Low",4130,1,7
"B",33,0,501,0,70,"Low",4106,1,7
"B",23,0,565,1,70,"Low",4096,1,7
"B",100,0,805,0,70,"Low",4173,1,7
"B",20,0,593,1,70,"Low",4093,1,7
"C",16,0,1074,1,30,"Low",4089,2,7
"C",39,0,740,1,30,"Low",4112,2,7
"C",42,0,1288,1,30,"Low",4115,2,7
"C",86,1,801,0,30,"Low",4159,2,7
"C",1,0,3892,0,30,"Low",4074,2,7
"C",6,0,643,1,30,"Low",4079,2,7
"C",36,0,451,1,30,"Low",4109,2,7
"C",80,0,803,0,30,"Low",4153,2,7
"C",70,0,827,0,30,"Low",4143,2,7
"C",82,1,611,0,30,"Low",4155,2,7
"C",9,0,800,0,30,"Low",4082,2,7
"C",53,0,386,0,30,"Low",4126,2,7
"C",75,0,707,0,30,"Low",4148,2,7
"C",47,0,1790,0,30,"Low",4120,2,7
"C",65,0,763,0,30,"Low",4138,2,7
"C",95,1,790,1,30,"Low",4168,2,7
"C",49,0,822,0,30,"Low",4122,2,7
"C",22,0,638,0,30,"Low",4095,2,7
"C",32,0,603,1,30,"Low",4105,2,7
"C",91,0,539,0,30,"Low",4164,2,7
"C",26,0,709,1,30,"Low",4099,2,7
"C",19,0,1079,0,30,"Low",4092,2,7
"C",60,0,476,0,30,"Low",4133,2,7
"C",63,0,431,0,30,"Low",4136,2,7
"C",97,0,627,0,30,"Low",4170,2,7
"D",4,1,2250,1,70,"High",4077,3,7
"D",43,1,527,0,70,"High",4116,3,7
"D",83,1,569,1,70,"High",4156,3,7
"D",85,1,463,1,70,"High",4158,3,7
"D",38,1,993,0,70,"High",4111,3,7
"D",29,1,749,1,70,"High",4102,3,7
"D",68,1,539,1,70,"High",4141,3,7
"D",15,1,916,1,70,"High",4088,3,7
"D",72,1,594,1,70,"High",4145,3,7
"D",78,1,555,1,70,"High",4151,3,7
"D",35,1,695,1,70,"High",4108,3,7
"D",7,1,828,0,70,"High",4080,3,7
"D",76,1,608,1,70,"High",4149,3,7
"D",51,1,713,1,70,"High",4124,3,7
"D",64,1,645,1,70,"High",4137,3,7
"D",25,1,849,1,70,"High",4098,3,7
"D",12,1,858,1,70,"High",4085,3,7
"D",93,1,1228,0,70,"High",4166,3,7
"D",55,1,524,1,70,"High",4128,3,7
"D",48,1,784,1,70,"High",4121,3,7
"D",98,1,588,1,70,"High",4171,3,7
"D",17,1,806,1,70,"High",4090,3,7
"D",89,1,630,1,70,"High",4162,3,7
"D",58,1,607,0,70,"High",4131,3,7
"D",21,1,688,1,70,"High",4094,3,7
"A",8,1,797,0,30,"High",2296,3,8
"A",85,0,2012,0,30,"High",2373,3,8
"A",69,1,234,0,30,"High",2357,3,8
"A",46,1,235,1,30,"High",2334,3,8
"A",78,1,492,0,30,"High",2366,3,8
"A",38,0,734,0,30,"High",2326,3,8
"A",49,1,579,0,30,"High",2337,3,8
"A",34,1,18041,1,30,"High",2322,3,8
"A",53,1,749,1,30,"High",2341,3,8
"A",75,1,420,1,30,"High",2363,3,8
"A",61,1,3831,0,30,"High",2349,3,8
"A",83,1,280,1,30,"High",2371,3,8
"A",4,1,1575,0,30,"High",2292,3,8
"A",30,1,592,1,30,"High",2318,3,8
"A",59,1,231,1,30,"High",2347,3,8
"A",93,1,657,0,30,"High",2381,3,8
"A",99,1,685,0,30,"High",2387,3,8
"A",18,1,522,0,30,"High",2306,3,8
"A",42,1,300,0,30,"High",2330,3,8
"A",11,1,2882,0,30,"High",2299,3,8
"A",13,1,698,1,30,"High",2301,3,8
"A",91,1,619,1,30,"High",2379,3,8
"A",67,1,3010,1,30,"High",2355,3,8
"A",26,0,646,0,30,"High",2314,3,8
"A",22,1,639,0,30,"High",2310,3,8
"B",48,1,529,0,70,"Low",2336,2,8
"B",86,0,286,1,70,"Low",2374,2,8
"B",33,1,5063,1,70,"Low",2321,2,8
"B",5,1,12511,1,70,"Low",2293,2,8
"B",51,1,620,0,70,"Low",2339,2,8
"B",81,1,128,1,70,"Low",2369,2,8
"B",94,1,568,1,70,"Low",2382,2,8
"B",65,1,1091,0,70,"Low",2353,2,8
"B",1,0,21990,0,70,"Low",2289,2,8
"B",31,1,3540,0,70,"Low",2319,2,8
"B",70,1,264,1,70,"Low",2358,2,8
"B",57,1,884,1,70,"Low",2345,2,8
"B",28,1,246,1,70,"Low",2316,2,8
"B",37,0,795,0,70,"Low",2325,2,8
"B",89,1,1624,1,70,"Low",2377,2,8
"B",9,1,1566,1,70,"Low",2297,2,8
"B",16,0,3777,1,70,"Low",2304,2,8
"B",79,1,747,1,70,"Low",2367,2,8
"B",54,1,1843,0,70,"Low",2342,2,8
"B",24,1,654,1,70,"Low",2312,2,8
"B",73,1,215,1,70,"Low",2361,2,8
"B",97,0,530,1,70,"Low",2385,2,8
"B",41,1,290,0,70,"Low",2329,2,8
"B",63,1,1264,0,70,"Low",2351,2,8
"B",19,1,243,1,70,"Low",2307,2,8
"C",72,1,1654,0,30,"Low",2360,1,8
"C",66,1,253,1,30,"Low",2354,1,8
"C",84,1,2254,1,30,"Low",2372,1,8
"C",58,1,813,0,30,"Low",2346,1,8
"C",21,1,263,1,30,"Low",2309,1,8
"C",40,1,1488,0,30,"Low",2328,1,8
"C",96,0,732,0,30,"Low",2384,1,8
"C",45,1,662,0,30,"Low",2333,1,8
"C",56,1,269,0,30,"Low",2344,1,8
"C",98,0,624,0,30,"Low",2386,1,8
"C",36,0,2982,1,30,"Low",2324,1,8
"C",7,1,567,0,30,"Low",2295,1,8
"C",50,1,368,1,30,"Low",2338,1,8
"C",10,1,673,1,30,"Low",2298,1,8
"C",27,1,670,0,30,"Low",2315,1,8
"C",2,0,3001,0,30,"Low",2290,1,8
"C",74,0,685,1,30,"Low",2362,1,8
"C",64,1,419,1,30,"Low",2352,1,8
"C",77,0,5531,0,30,"Low",2365,1,8
"C",17,0,897,0,30,"Low",2305,1,8
"C",43,1,302,0,30,"Low",2331,1,8
"C",87,0,258,0,30,"Low",2375,1,8
"C",90,1,14921,0,30,"Low",2378,1,8
"C",15,1,870,1,30,"Low",2303,1,8
"C",32,1,543,0,30,"Low",2320,1,8
"D",20,1,615,0,70,"High",2308,2,8
"D",29,1,1057,1,70,"High",2317,2,8
"D",47,1,658,0,70,"High",2335,2,8
"D",35,1,893,1,70,"High",2323,2,8
"D",39,1,430,1,70,"High",2327,2,8
"D",95,1,739,0,70,"High",2383,2,8
"D",92,1,1052,0,70,"High",2380,2,8
"D",80,1,805,0,70,"High",2368,2,8
"D",44,1,259,1,70,"High",2332,2,8
"D",88,1,253,1,70,"High",2376,2,8
"D",25,1,2609,0,70,"High",2313,2,8
"D",68,1,1090,0,70,"High",2356,2,8
"D",100,1,565,1,70,"High",2388,2,8
"D",3,1,1165,0,70,"High",2291,2,8
"D",71,1,614,1,70,"High",2359,2,8
"D",52,1,741,1,70,"High",2340,2,8
"D",14,1,765,0,70,"High",2302,2,8
"D",60,1,1431,1,70,"High",2348,2,8
"D",76,1,2384,1,70,"High",2364,2,8
"D",55,1,30,0,70,"High",2343,2,8
"D",62,1,258,1,70,"High",2350,2,8
"D",12,1,1311,1,70,"High",2300,2,8
"D",82,1,1074,0,70,"High",2370,2,8
"D",6,0,4845,1,70,"High",2294,2,8
"D",23,1,789,0,70,"High",2311,2,8
"A",25,0,1836,0,30,"High",1118,4,9
"A",30,1,1047,0,30,"High",1123,4,9
"A",76,1,1405,0,30,"High",1169,4,9
"A",37,1,490,0,30,"High",1130,4,9
"A",50,1,1552,0,30,"High",1143,4,9
"A",10,1,837,0,30,"High",1104,4,9
"A",96,1,436,1,30,"High",1189,4,9
"A",85,1,945,1,30,"High",1178,4,9
"A",15,1,582,1,30,"High",1109,4,9
"A",99,1,567,0,30,"High",1192,4,9
"A",35,0,1300,0,30,"High",1128,4,9
"A",68,0,3385,0,30,"High",1161,4,9
"A",56,1,1730,0,30,"High",1149,4,9
"A",17,1,798,0,30,"High",1111,4,9
"A",42,0,1947,0,30,"High",1135,4,9
"A",90,1,1766,0,30,"High",1183,4,9
"A",7,1,2173,0,30,"High",1101,4,9
"A",23,1,678,0,30,"High",1116,4,9
"A",63,1,555,0,30,"High",1156,4,9
"A",83,1,1231,0,30,"High",1176,4,9
"A",72,0,1891,0,30,"High",1165,4,9
"A",78,1,620,0,30,"High",1171,4,9
"A",45,0,653,0,30,"High",1138,4,9
"A",2,1,10214,0,30,"High",1096,4,9
"A",59,1,1399,0,30,"High",1152,4,9
"B",67,0,324,1,70,"Low",1160,2,9
"B",82,0,581,1,70,"Low",1175,2,9
"B",77,0,905,1,70,"Low",1170,2,9
"B",28,0,957,1,70,"Low",1121,2,9
"B",94,0,614,0,70,"Low",1187,2,9
"B",11,0,5905,1,70,"Low",1105,2,9
"B",69,0,688,0,70,"Low",1162,2,9
"B",58,0,826,1,70,"Low",1151,2,9
"B",98,0,1275,1,70,"Low",1191,2,9
"B",52,0,628,0,70,"Low",1145,2,9
"B",21,0,3107,1,70,"Low",1114,2,9
"B",89,0,442,0,70,"Low",1182,2,9
"B",16,0,755,0,70,"Low",1110,2,9
"B",54,0,2190,1,70,"Low",1147,2,9
"B",36,0,670,1,70,"Low",1129,2,9
"B",39,0,693,1,70,"Low",1132,2,9
"B",32,0,542,0,70,"Low",1125,2,9
"B",62,0,604,1,70,"Low",1155,2,9
"B",6,1,1702,1,70,"Low",1100,2,9
"B",19,0,841,1,70,"Low",1113,2,9
"B",4,0,1566,0,70,"Low",1098,2,9
"B",43,0,1135,0,70,"Low",1136,2,9
"B",46,0,677,0,70,"Low",1139,2,9
"B",87,0,511,1,70,"Low",1180,2,9
"B",73,0,475,1,70,"Low",1166,2,9
"C",64,0,703,0,30,"Low",1157,1,9
"C",1,0,33494,1,30,"Low",1095,1,9
"C",95,0,594,0,30,"Low",1188,1,9
"C",13,0,1461,0,30,"Low",1107,1,9
"C",92,0,775,1,30,"Low",1185,1,9
"C",100,0,816,0,30,"Low",1193,1,9
"C",60,0,860,0,30,"Low",1153,1,9
"C",48,0,1672,0,30,"Low",1141,1,9
"C",75,0,2711,0,30,"Low",1168,1,9
"C",33,0,490,1,30,"Low",1126,1,9
"C",81,0,1785,0,30,"Low",1174,1,9
"C",27,0,708,0,30,"Low",1120,1,9
"C",18,0,778,0,30,"Low",1112,1,9
"C",51,0,697,0,30,"Low",1144,1,9
"C",44,0,469,0,30,"Low",1137,1,9
"C",55,0,1368,0,30,"Low",1148,1,9
"C",9,0,17286,1,30,"Low",1103,1,9
"C",70,0,520,1,30,"Low",1163,1,9
"C",66,0,701,0,30,"Low",1159,1,9
"C",31,0,893,0,30,"Low",1124,1,9
"C",40,0,696,1,30,"Low",1133,1,9
"C",86,0,745,0,30,"Low",1179,1,9
"C",79,0,703,0,30,"Low",1172,1,9
"C",22,0,646,0,30,"Low",1115,1,9
"C",5,0,2315,1,30,"Low",1099,1,9
"D",12,1,570,1,70,"High",1106,5,9
"D",97,0,629,0,70,"High",1190,5,9
"D",65,1,1788,1,70,"High",1158,5,9
"D",26,1,679,1,70,"High",1119,5,9
"D",49,0,869,1,70,"High",1142,5,9
"D",14,0,1317,0,70,"High",1108,5,9
"D",29,1,2660,0,70,"High",1122,5,9
"D",80,1,413,1,70,"High",1173,5,9
"D",91,1,2560,0,70,"High",1184,5,9
"D",38,0,508,1,70,"High",1131,5,9
"D",24,1,888,1,70,"High",1117,5,9
"D",8,1,2923,0,70,"High",1102,5,9
"D",57,1,1193,0,70,"High",1150,5,9
"D",84,1,2182,0,70,"High",1177,5,9
"D",71,1,541,1,70,"High",1164,5,9
"D",41,1,698,1,70,"High",1134,5,9
"D",34,1,507,1,70,"High",1127,5,9
"D",47,1,425,1,70,"High",1140,5,9
"D",93,1,770,0,70,"High",1186,5,9
"D",53,1,6589,1,70,"High",1146,5,9
"D",61,1,476,0,70,"High",1154,5,9
"D",3,1,4621,0,70,"High",1097,5,9
"D",74,1,473,1,70,"High",1167,5,9
"D",88,0,1302,0,70,"High",1181,5,9
"A",47,0,855,0,30,"High",147,1,10
"A",37,0,1437,0,30,"High",137,1,10
"A",69,0,599,0,30,"High",169,1,10
"A",74,0,453,0,30,"High",174,1,10
"A",17,0,826,0,30,"High",117,1,10
"A",50,0,670,1,30,"High",150,1,10
"A",57,0,960,0,30,"High",157,1,10
"A",3,1,8389,0,30,"High",103,1,10
"A",77,0,909,0,30,"High",177,1,10
"A",25,0,796,1,30,"High",125,1,10
"A",34,0,792,0,30,"High",134,1,10
"A",6,1,4655,0,30,"High",106,1,10
"A",15,0,1013,0,30,"High",115,1,10
"A",100,0,598,0,30,"High",200,1,10
"A",88,0,412,0,30,"High",188,1,10
"A",84,0,605,0,30,"High",184,1,10
"A",29,0,1663,0,30,"High",129,1,10
"A",90,0,347,1,30,"High",190,1,10
"A",23,0,807,0,30,"High",123,1,10
"A",12,0,619,0,30,"High",112,1,10
"A",66,0,800,1,30,"High",166,1,10
"A",54,0,645,0,30,"High",154,1,10
"A",96,0,334,0,30,"High",196,1,10
"A",42,0,426,0,30,"High",142,1,10
"A",63,0,989,1,30,"High",163,1,10
"B",5,0,2418,1,70,"Low",105,1,10
"B",44,0,437,1,70,"Low",144,1,10
"B",83,0,501,1,70,"Low",183,1,10
"B",9,0,419,1,70,"Low",109,1,10
"B",30,0,934,1,70,"Low",130,1,10
"B",67,0,635,0,70,"Low",167,1,10
"B",56,0,1081,1,70,"Low",156,1,10
"B",1,0,3044,0,70,"Low",101,1,10
"B",48,0,661,1,70,"Low",148,1,10
"B",87,0,631,0,70,"Low",187,1,10
"B",33,0,788,0,70,"Low",133,1,10
"B",72,0,421,1,70,"Low",172,1,10
"B",80,0,406,1,70,"Low",180,1,10
"B",93,0,719,1,70,"Low",193,1,10
"B",21,0,450,1,70,"Low",121,1,10
"B",76,0,614,1,70,"Low",176,1,10
"B",59,0,855,1,70,"Low",159,1,10
"B",98,0,420,1,70,"Low",198,1,10
"B",27,0,726,1,70,"Low",127,1,10
"B",39,0,600,1,70,"Low",139,1,10
"B",52,0,347,1,70,"Low",152,1,10
"B",89,0,428,1,70,"Low",189,1,10
"B",18,0,764,1,70,"Low",118,1,10
"B",61,0,365,0,70,"Low",161,1,10
"B",14,0,430,1,70,"Low",114,1,10
"C",85,0,495,0,30,"Low",185,1,10
"C",32,0,452,0,30,"Low",132,1,10
"C",68,0,720,0,30,"Low",168,1,10
"C",70,0,510,0,30,"Low",170,1,10
"C",46,0,1799,1,30,"Low",146,1,10
"C",7,0,1040,0,30,"Low",107,1,10
"C",81,0,902,0,30,"Low",181,1,10
"C",16,0,721,0,30,"Low",116,1,10
"C",92,0,312,0,30,"Low",192,1,10
"C",75,0,330,0,30,"Low",175,1,10
"C",58,0,722,0,30,"Low",158,1,10
"C",35,0,713,0,30,"Low",135,1,10
"C",49,0,680,0,30,"Low",149,1,10
"C",43,0,395,0,30,"Low",143,1,10
"C",2,0,1349,0,30,"Low",102,1,10
"C",79,0,1276,0,30,"Low",179,1,10
"C",40,0,633,1,30,"Low",140,1,10
"C",19,0,677,0,30,"Low",119,1,10
"C",26,0,730,0,30,"Low",126,1,10
"C",94,0,506,0,30,"Low",194,1,10
"C",64,0,813,0,30,"Low",164,1,10
"C",24,0,752,1,30,"Low",124,1,10
"C",99,0,562,0,30,"Low",199,1,10
"C",55,0,1298,0,30,"Low",155,1,10
"C",11,0,762,0,30,"Low",111,1,10
"D",4,1,1005,1,70,"High",104,4,10
"D",38,1,601,1,70,"High",138,4,10
"D",8,1,654,1,70,"High",108,4,10
"D",22,1,803,1,70,"High",122,4,10
"D",36,1,543,0,70,"High",136,4,10
"D",41,1,1252,1,70,"High",141,4,10
"D",95,1,404,1,70,"High",195,4,10
"D",71,1,650,0,70,"High",171,4,10
"D",45,1,705,1,70,"High",145,4,10
"D",82,1,580,1,70,"High",182,4,10
"D",20,1,624,1,70,"High",120,4,10
"D",10,0,163,1,70,"High",110,4,10
"D",97,0,372,1,70,"High",197,4,10
"D",86,0,1481,1,70,"High",186,4,10
"D",51,1,379,0,70,"High",151,4,10
"D",73,0,283,1,70,"High",173,4,10
"D",60,1,903,1,70,"High",160,4,10
"D",28,1,486,0,70,"High",128,4,10
"D",31,1,823,1,70,"High",131,4,10
"D",62,1,1011,0,70,"High",162,4,10
"D",78,1,609,1,70,"High",178,4,10
"D",13,1,714,1,70,"High",113,4,10
"D",65,1,1174,1,70,"High",165,4,10
"D",53,1,1206,1,70,"High",153,4,10
"D",91,1,398,1,70,"High",191,4,10
"A",50,0,1117,0,30,"High",1442,1,11
"A",8,1,2781,0,30,"High",1400,1,11
"A",21,0,2345,0,30,"High",1413,1,11
"A",89,0,470,1,30,"High",1481,1,11
"A",44,0,1751,1,30,"High",1436,1,11
"A",100,0,5757,1,30,"High",1492,1,11
"A",25,0,1369,0,30,"High",1417,1,11
"A",12,0,2137,1,30,"High",1404,1,11
"A",73,0,842,0,30,"High",1465,1,11
"A",34,0,1221,1,30,"High",1426,1,11
"A",31,0,1141,1,30,"High",1423,1,11
"A",46,0,1508,0,30,"High",1438,1,11
"A",78,0,786,0,30,"High",1470,1,11
"A",64,0,1218,0,30,"High",1456,1,11
"A",81,0,733,0,30,"High",1473,1,11
"A",87,0,665,1,30,"High",1479,1,11
"A",1,1,16031,0,30,"High",1393,1,11
"A",16,0,1015,0,30,"High",1408,1,11
"A",38,1,692,1,30,"High",1430,1,11
"A",59,0,8126,0,30,"High",1451,1,11
"A",96,0,716,0,30,"High",1488,1,11
"A",66,0,2514,0,30,"High",1458,1,11
"A",55,0,954,1,30,"High",1447,1,11
"A",69,0,2493,0,30,"High",1461,1,11
"A",18,0,1095,0,30,"High",1410,1,11
"B",51,1,881,1,70,"Low",1443,3,11
"B",9,1,5892,1,70,"Low",1401,3,11
"B",86,1,746,1,70,"Low",1478,3,11
"B",37,1,877,0,70,"Low",1429,3,11
"B",94,1,734,0,70,"Low",1486,3,11
"B",76,1,1090,1,70,"Low",1468,3,11
"B",7,1,1091,0,70,"Low",1399,3,11
"B",23,1,737,1,70,"Low",1415,3,11
"B",42,1,1224,1,70,"Low",1434,3,11
"B",53,1,1215,1,70,"Low",1445,3,11
"B",4,1,3830,1,70,"Low",1396,3,11
"B",15,1,1178,1,70,"Low",1407,3,11
"B",47,1,874,1,70,"Low",1439,3,11
"B",84,1,749,0,70,"Low",1476,3,11
"B",61,1,1043,0,70,"Low",1453,3,11
"B",19,1,814,1,70,"Low",1411,3,11
"B",80,1,774,1,70,"Low",1472,3,11
"B",68,1,1471,1,70,"Low",1460,3,11
"B",90,1,717,0,70,"Low",1482,3,11
"B",27,1,832,0,70,"Low",1419,3,11
"B",71,0,194,1,70,"Low",1463,3,11
"B",97,1,672,0,70,"Low",1489,3,11
"B",29,1,1141,1,70,"Low",1421,3,11
"B",33,1,750,1,70,"Low",1425,3,11
"B",58,1,701,0,70,"Low",1450,3,11
"C",22,0,2804,0,30,"Low",1414,1,11
"C",45,1,1829,1,30,"Low",1437,1,11
"C",32,0,2866,0,30,"Low",1424,1,11
"C",92,0,707,0,30,"Low",1484,1,11
"C",35,0,740,0,30,"Low",1427,1,11
"C",14,1,1775,0,30,"Low",1406,1,11
"C",82,0,805,1,30,"Low",1474,1,11
"C",5,1,4185,1,30,"Low",1397,1,11
"C",3,1,3900,0,30,"Low",1395,1,11
"C",88,0,508,0,30,"Low",1480,1,11
"C",28,1,1013,0,30,"Low",1420,1,11
"C",49,1,1029,0,30,"Low",1441,1,11
"C",99,0,1789,0,30,"Low",1491,1,11
"C",39,0,1523,0,30,"Low",1431,1,11
"C",11,0,6763,0,30,"Low",1403,1,11
"C",67,0,4868,0,30,"Low",1459,1,11
"C",95,0,818,0,30,"Low",1487,1,11
"C",17,0,983,1,30,"Low",1409,1,11
"C",72,1,3279,0,30,"Low",1464,1,11
"C",62,1,1456,0,30,"Low",1454,1,11
"C",41,1,901,0,30,"Low",1433,1,11
"C",74,1,980,0,30,"Low",1466,1,11
"C",54,0,1001,0,30,"Low",1446,1,11
"C",57,0,1011,0,30,"Low",1449,1,11
"C",79,0,930,1,30,"Low",1471,1,11
"D",91,1,915,1,70,"High",1483,2,11
"D",48,0,3836,1,70,"High",1440,2,11
"D",77,1,869,1,70,"High",1469,2,11
"D",85,1,901,0,70,"High",1477,2,11
"D",75,0,1285,1,70,"High",1467,2,11
"D",13,1,8166,0,70,"High",1405,2,11
"D",2,0,1757,1,70,"High",1394,2,11
"D",98,0,508,0,70,"High",1490,2,11
"D",10,0,1109,1,70,"High",1402,2,11
"D",43,0,1631,1,70,"High",1435,2,11
"D",60,1,831,0,70,"High",1452,2,11
"D",52,1,2393,1,70,"High",1444,2,11
"D",65,0,1377,0,70,"High",1457,2,11
"D",20,0,7486,1,70,"High",1412,2,11
"D",93,0,833,0,70,"High",1485,2,11
"D",56,1,1377,1,70,"High",1448,2,11
"D",24,0,916,1,70,"High",1416,2,11
"D",63,1,696,1,70,"High",1455,2,11
"D",83,1,542,1,70,"High",1475,2,11
"D",30,0,1394,1,70,"High",1422,2,11
"D",70,1,1349,0,70,"High",1462,2,11
"D",6,0,1402,1,70,"High",1398,2,11
"D",26,0,946,0,70,"High",1418,2,11
"D",36,0,692,1,70,"High",1428,2,11
"D",40,0,2160,0,70,"High",1432,2,11
"A",22,0,1388,0,30,"High",618,0,12
"A",61,0,1439,1,30,"High",656,0,12
"A",93,0,453,1,30,"High",688,0,12
"A",77,0,2576,1,30,"High",672,0,12
"A",91,1,551,0,30,"High",686,0,12
"A",70,0,1242,1,30,"High",665,0,12
"A",67,0,1067,1,30,"High",662,0,12
"A",39,1,34487,0,30,"High",635,0,12
"A",53,0,648,0,30,"High",649,0,12
"A",6,0,1582,0,30,"High",602,0,12
"A",47,0,723,0,30,"High",643,0,12
"A",30,0,78,1,30,"High",626,0,12
"A",73,0,773,0,30,"High",668,0,12
"A",4,1,1434,0,30,"High",600,0,12
"A",49,0,522,0,30,"High",645,0,12
"A",26,0,1257,0,30,"High",622,0,12
"A",10,0,2965,0,30,"High",606,0,12
"A",15,1,1859,0,30,"High",611,0,12
"A",83,1,800,0,30,"High",678,0,12
"A",86,0,363,0,30,"High",681,0,12
"A",33,0,349,0,30,"High",629,0,12
"A",20,0,1521,0,30,"High",616,0,12
"A",44,0,712,1,30,"High",640,0,12
"A",57,0,1546,0,30,"High",653,0,12
"A",97,0,2706,0,30,"High",692,0,12
"B",21,0,458,0,70,"Low",617,1,12
"B",7,0,544,1,70,"Low",603,1,12
"B",78,0,742,1,70,"Low",673,1,12
"B",35,0,129,0,70,"Low",631,1,12
"B",88,0,7717,1,70,"Low",683,1,12
"B",99,1,1643,1,70,"Low",694,1,12
"B",41,1,1576,1,70,"Low",637,1,12
"B",63,0,586,1,70,"Low",658,1,12
"B",9,0,2047,0,70,"Low",605,1,12
"B",69,0,698,1,70,"Low",664,1,12
"B",75,0,724,0,70,"Low",670,1,12
"B",37,0,182,1,70,"Low",633,1,12
"B",17,0,978,1,70,"Low",613,1,12
"B",2,0,3542,1,70,"Low",598,1,12
"B",13,0,446,1,70,"Low",609,1,12
"B",27,0,475,1,70,"Low",623,1,12
"B",90,0,2980,0,70,"Low",685,1,12
"B",84,0,680,1,70,"Low",679,1,12
"B",55,1,1956,0,70,"Low",651,1,12
"B",59,0,2118,0,70,"Low",654,1,12
"B",29,0,181,1,70,"Low",625,1,12
"B",94,0,438,0,70,"Low",689,1,12
"B",65,0,1805,1,70,"Low",660,1,12
"B",48,1,301,1,70,"Low",644,1,12
"B",52,1,1064,1,70,"Low",648,1,12
"C",60,0,382,1,30,"Low",655,1,12
"C",25,0,1422,1,30,"Low",621,1,12
"C",62,0,655,0,30,"Low",657,1,12
"C",45,1,426,1,30,"Low",641,1,12
"C",5,0,3190,0,30,"Low",601,1,12
"C",92,0,988,0,30,"Low",687,1,12
"C",23,0,713,0,30,"Low",619,1,12
"C",100,1,639,0,30,"Low",695,1,12
"C",71,0,377,0,30,"Low",666,1,12
"C",36,0,143,1,30,"Low",632,1,12
"C",80,1,6980,0,30,"Low",675,1,12
"C",76,0,484,0,30,"Low",671,1,12
"C",18,0,451,0,30,"Low",614,1,12
"C",66,0,310,1,30,"Low",661,1,12
"C",32,0,190,0,30,"Low",628,1,12
"C",85,0,579,0,30,"Low",680,1,12
"C",12,0,853,0,30,"Low",608,1,12
"C",82,1,4704,0,30,"Low",677,1,12
"C",40,1,1401,1,30,"Low",636,1,12
"C",50,1,364,0,30,"Low",646,1,12
"C",1,0,4148,0,30,"Low",597,1,12
"C",56,1,1265,0,30,"Low",652,1,12
"C",14,0,498,0,30,"Low",610,1,12
"C",43,1,588,1,30,"Low",639,1,12
"C",95,0,493,0,30,"Low",690,1,12
"D",31,0,533,1,70,"High",627,4,12
"D",79,1,586,0,70,"High",674,4,12
"D",19,1,1075,1,70,"High",615,4,12
"D",28,0,249,0,70,"High",624,4,12
"D",24,1,976,0,70,"High",620,4,12
"D",64,1,494,1,70,"High",659,4,12
"D",42,1,1288,1,70,"High",638,4,12
"D",87,1,531,1,70,"High",682,4,12
"D",81,1,2346,1,70,"High",676,4,12
"D",34,0,192,1,70,"High",630,4,12
"D",74,1,576,1,70,"High",669,4,12
"D",46,1,532,1,70,"High",642,4,12
"D",98,1,378,1,70,"High",693,4,12
"D",89,1,839,1,70,"High",684,4,12
"D",38,0,20,1,70,"High",634,4,12
"D",8,1,852,1,70,"High",604,4,12
"D",11,1,520,1,70,"High",607,4,12
"D",51,1,8778,1,70,"High",647,4,12
"D",3,0,28556,1,70,"High",599,4,12
"D",68,1,676,1,70,"High",663,4,12
"D",96,1,550,0,70,"High",691,4,12
"D",72,1,580,1,70,"High",667,4,12
"D",16,1,1677,0,70,"High",612,4,12
"D",54,1,885,1,70,"High",650,4,12
"A",61,1,267,0,30,"High",2844,3,13
"A",77,1,1107,1,30,"High",2860,3,13
"A",50,1,1465,1,30,"High",2833,3,13
"A",23,0,2746,0,30,"High",2806,3,13
"A",25,1,914,0,30,"High",2808,3,13
"A",87,0,334,0,30,"High",2870,3,13
"A",4,1,1461,0,30,"High",2788,3,13
"A",39,1,1166,1,30,"High",2822,3,13
"A",32,0,2972,1,30,"High",2815,3,13
"A",8,1,3676,0,30,"High",2792,3,13
"A",43,0,904,0,30,"High",2826,3,13
"A",67,0,358,1,30,"High",2850,3,13
"A",48,1,346,0,30,"High",2831,3,13
"A",53,1,886,1,30,"High",2836,3,13
"A",18,0,1085,0,30,"High",2802,3,13
"A",84,1,481,1,30,"High",2867,3,13
"A",69,1,406,0,30,"High",2852,3,13
"A",36,0,2218,0,30,"High",2819,3,13
"A",57,0,817,1,30,"High",2840,3,13
"A",99,0,3250,0,30,"High",2882,3,13
"A",92,1,410,0,30,"High",2875,3,13
"A",10,1,1540,1,30,"High",2794,3,13
"A",95,1,347,0,30,"High",2878,3,13
"A",16,1,8712,0,30,"High",2800,3,13
"A",74,1,401,0,30,"High",2857,3,13
"B",64,1,414,1,70,"Low",2847,1,13
"B",21,0,1715,1,70,"Low",2805,1,13
"B",17,1,5242,1,70,"Low",2801,1,13
"B",75,1,303,1,70,"Low",2858,1,13
"B",37,0,538,1,70,"Low",2820,1,13
"B",47,0,537,1,70,"Low",2830,1,13
"B",89,0,366,1,70,"Low",2872,1,13
"B",49,1,363,1,70,"Low",2832,1,13
"B",27,1,524,1,70,"Low",2810,1,13
"B",33,1,1556,1,70,"Low",2816,1,13
"B",66,0,639,1,70,"Low",2849,1,13
"B",98,1,2356,1,70,"Low",2881,1,13
"B",86,1,641,0,70,"Low",2869,1,13
"B",96,0,303,1,70,"Low",2879,1,13
"B",1,1,8377,0,70,"Low",2785,1,13
"B",80,1,812,0,70,"Low",2863,1,13
"B",6,0,2783,1,70,"Low",2790,1,13
"B",71,1,411,1,70,"Low",2854,1,13
"B",82,0,535,0,70,"Low",2865,1,13
"B",11,0,8689,0,70,"Low",2795,1,13
"B",31,1,656,0,70,"Low",2814,1,13
"B",58,0,472,1,70,"Low",2841,1,13
"B",15,0,1518,1,70,"Low",2799,1,13
"B",56,1,1232,1,70,"Low",2839,1,13
"B",41,1,558,0,70,"Low",2824,1,13
"C",88,1,283,0,30,"Low",2871,1,13
"C",72,0,498,0,30,"Low",2855,1,13
"C",30,0,1052,1,30,"Low",2813,1,13
"C",28,0,6131,0,30,"Low",2811,1,13
"C",79,1,1654,0,30,"Low",2862,1,13
"C",76,1,384,0,30,"Low",2859,1,13
"C",45,0,1208,0,30,"Low",2828,1,13
"C",13,0,1157,0,30,"Low",2797,1,13
"C",40,0,1713,0,30,"Low",2823,1,13
"C",19,1,1051,0,30,"Low",2803,1,13
"C",60,0,754,0,30,"Low",2843,1,13
"C",97,1,371,1,30,"Low",2880,1,13
"C",35,0,3383,0,30,"Low",2818,1,13
"C",90,1,288,0,30,"Low",2873,1,13
"C",42,1,1414,1,30,"Low",2825,1,13
"C",7,0,5282,0,30,"Low",2791,1,13
"C",9,0,5087,0,30,"Low",2793,1,13
"C",62,1,401,1,30,"Low",2845,1,13
"C",52,1,463,0,30,"Low",2835,1,13
"C",54,0,1251,1,30,"Low",2837,1,13
"C",68,1,303,0,30,"Low",2851,1,13
"C",93,1,371,0,30,"Low",2876,1,13
"C",81,1,556,0,30,"Low",2864,1,13
"C",2,0,2363,0,30,"Low",2786,1,13
"D",24,0,2025,0,70,"High",2807,2,13
"D",34,0,2538,1,70,"High",2817,2,13
"D",46,1,289,1,70,"High",2829,2,13
"D",78,1,5096,0,70,"High",2861,2,13
"D",38,1,527,0,70,"High",2821,2,13
"D",29,1,889,1,70,"High",2812,2,13
"D",26,0,663,1,70,"High",2809,2,13
"D",59,1,341,1,70,"High",2842,2,13
"D",65,1,709,1,70,"High",2848,2,13
"D",44,1,515,1,70,"High",2827,2,13
"D",100,0,1195,0,70,"High",2883,2,13
"D",91,1,473,1,70,"High",2874,2,13
"D",83,1,392,1,70,"High",2866,2,13
"D",20,0,2878,1,70,"High",2804,2,13
"D",63,0,1143,1,70,"High",2846,2,13
"D",85,1,437,0,70,"High",2868,2,13
"D",3,0,3558,1,70,"High",2787,2,13
"D",94,1,293,1,70,"High",2877,2,13
"D",12,0,1352,1,70,"High",2796,2,13
"D",5,1,3534,1,70,"High",2789,2,13
"D",70,1,397,1,70,"High",2853,2,13
"D",55,1,731,1,70,"High",2838,2,13
"D",51,1,469,0,70,"High",2834,2,13
"D",14,1,1341,0,70,"High",2798,2,13
"D",73,1,280,0,70,"High",2856,2,13
"A",27,1,6413,0,30,"High",5090,2,14
"A",6,1,943,0,30,"High",5069,2,14
"A",67,0,1046,0,30,"High",5130,2,14
"A",19,0,1873,0,30,"High",5082,2,14
"A",30,0,1075,1,30,"High",5093,2,14
"A",93,1,957,1,30,"High",5155,2,14
"A",64,1,471,0,30,"High",5127,2,14
"A",54,1,1287,1,30,"High",5117,2,14
"A",86,0,3335,0,30,"High",5148,2,14
"A",98,1,754,0,30,"High",5160,2,14
"A",15,0,4309,0,30,"High",5078,2,14
"A",60,1,1555,1,30,"High",5123,2,14
"A",3,1,1586,0,30,"High",5066,2,14
"A",12,0,1339,0,30,"High",5075,2,14
"A",46,1,455,0,30,"High",5109,2,14
"A",76,1,1380,0,30,"High",5138,2,14
"A",23,0,6337,0,30,"High",5086,2,14
"A",70,0,1396,0,30,"High",5133,2,14
"A",52,0,666,1,30,"High",5115,2,14
"A",82,1,1015,0,30,"High",5144,2,14
"A",34,0,1273,0,30,"High",5097,2,14
"A",41,1,496,1,30,"High",5104,2,14
"A",78,1,515,1,30,"High",5140,2,14
"A",91,1,381,1,30,"High",5153,2,14
"A",37,1,1153,0,30,"High",5100,2,14
"B",25,0,518,1,70,"Low",5088,2,14
"B",63,0,424,0,70,"Low",5126,2,14
"B",21,0,753,1,70,"Low",5084,2,14
"B",16,0,960,1,70,"Low",5079,2,14
"B",90,0,569,1,70,"Low",5152,2,14
"B",2,0,5762,1,70,"Low",5065,2,14
"B",5,0,1501,1,70,"Low",5068,2,14
"B",33,0,565,0,70,"Low",5096,2,14
"B",97,0,728,1,70,"Low",5159,2,14
"B",47,1,926,1,70,"Low",5110,2,14
"B",18,0,2206,1,70,"Low",5081,2,14
"B",57,0,1032,1,70,"Low",5120,2,14
"B",66,1,797,0,70,"Low",5129,2,14
"B",77,0,480,1,70,"Low",5139,2,14
"B",88,0,868,0,70,"Low",5150,2,14
"B",44,0,723,0,70,"Low",5107,2,14
"B",29,0,649,0,70,"Low",5092,2,14
"B",69,0,941,0,70,"Low",5132,2,14
"B",73,1,2226,1,70,"Low",5136,2,14
"B",55,0,2305,1,70,"Low",5118,2,14
"B",9,0,920,1,70,"Low",5072,2,14
"B",49,1,627,1,70,"Low",5112,2,14
"B",84,0,1650,0,70,"Low",5146,2,14
"B",95,0,1028,1,70,"Low",5157,2,14
"B",40,0,893,1,70,"Low",5103,2,14
"C",20,0,1028,1,30,"Low",5083,1,14
"C",32,0,1232,0,30,"Low",5095,1,14
"C",38,0,512,0,30,"Low",5101,1,14
"C",68,1,423,1,30,"Low",5131,1,14
"C",35,0,668,0,30,"Low",5098,1,14
"C",26,0,603,0,30,"Low",5089,1,14
"C",62,0,768,1,30,"Low",5125,1,14
"C",100,0,797,0,30,"Low",5162,1,14
"C",53,0,638,1,30,"Low",5116,1,14
"C",4,1,6793,0,30,"Low",5067,1,14
"C",14,0,913,0,30,"Low",5077,1,14
"C",11,0,560,1,30,"Low",5074,1,14
"C",42,0,509,0,30,"Low",5105,1,14
"C",7,0,2121,0,30,"Low",5070,1,14
"C",24,0,669,0,30,"Low",5087,1,14
"C",58,0,2393,1,30,"Low",5121,1,14
"C",87,1,1218,0,30,"Low",5149,1,14
"C",79,0,1196,0,30,"Low",5141,1,14
"C",94,0,1567,0,30,"Low",5156,1,14
"C",45,0,637,0,30,"Low",5108,1,14
"C",50,0,720,1,30,"Low",5113,1,14
"C",92,0,1113,0,30,"Low",5154,1,14
"C",81,0,328,0,30,"Low",5143,1,14
"C",71,1,696,0,30,"Low",5134,1,14
"D",17,1,601,1,70,"High",5080,3,14
"D",99,0,422,1,70,"High",5161,3,14
"D",51,0,2687,0,70,"High",5114,3,14
"D",59,1,700,0,70,"High",5122,3,14
"D",96,1,1610,1,70,"High",5158,3,14
"D",56,1,637,1,70,"High",5119,3,14
"D",1,0,15570,0,70,"High",5064,3,14
"D",83,1,1455,1,70,"High",5145,3,14
"D",72,0,717,1,70,"High",5135,3,14
"D",31,1,539,1,70,"High",5094,3,14
"D",61,0,1218,1,70,"High",5124,3,14
"D",10,1,671,1,70,"High",5073,3,14
"D",22,1,532,1,70,"High",5085,3,14
"D",8,1,984,1,70,"High",5071,3,14
"D",65,1,1852,0,70,"High",5128,3,14
"D",80,1,490,1,70,"High",5142,3,14
"D",89,1,498,0,70,"High",5151,3,14
"D",13,1,621,1,70,"High",5076,3,14
"D",28,1,853,1,70,"High",5091,3,14
"D",36,1,671,0,70,"High",5099,3,14
"D",48,1,806,0,70,"High",5111,3,14
"D",43,0,1716,1,70,"High",5106,3,14
"D",85,1,628,0,70,"High",5147,3,14
"D",39,1,685,0,70,"High",5102,3,14
"D",74,1,3216,1,70,"High",5137,3,14
"A",98,1,3367,1,30,"High",98,0,15
"A",14,0,3558,0,30,"High",14,0,15
"A",6,1,1401,0,30,"High",6,0,15
"A",93,0,275,0,30,"High",93,0,15
"A",27,1,1167,0,30,"High",27,0,15
"A",64,0,275,0,30,"High",64,0,15
"A",71,0,333,0,30,"High",71,0,15
"A",12,0,2855,0,30,"High",12,0,15
"A",52,0,377,0,30,"High",52,0,15
"A",2,1,3696,0,30,"High",2,0,15
"A",73,0,273,1,30,"High",73,0,15
"A",83,1,301,0,30,"High",83,0,15
"A",58,0,343,0,30,"High",58,0,15
"A",85,1,286,0,30,"High",85,0,15
"A",56,0,299,1,30,"High",56,0,15
"A",17,0,1472,1,30,"High",17,0,15
"A",24,1,1995,1,30,"High",24,0,15
"A",35,1,765,0,30,"High",35,0,15
"A",89,0,336,1,30,"High",89,0,15
"A",43,0,5627,0,30,"High",43,0,15
"A",68,1,316,1,30,"High",68,0,15
"A",80,0,307,0,30,"High",80,0,15
"A",40,0,2982,0,30,"High",40,0,15
"A",31,0,1660,1,30,"High",31,0,15
"A",46,1,296,0,30,"High",46,0,15
"B",97,1,507,1,70,"Low",97,0,15
"B",36,1,1347,1,70,"Low",36,0,15
"B",49,1,402,1,70,"Low",49,0,15
"B",15,1,938,1,70,"Low",15,0,15
"B",39,1,2426,1,70,"Low",39,0,15
"B",1,0,11778,1,70,"Low",1,0,15
"B",25,0,3051,1,70,"Low",25,0,15
"B",57,1,285,1,70,"Low",57,0,15
"B",63,1,290,1,70,"Low",63,0,15
"B",90,1,483,1,70,"Low",90,0,15
"B",95,1,253,1,70,"Low",95,0,15
"B",76,1,292,0,70,"Low",76,0,15
"B",54,0,354,1,70,"Low",54,0,15
"B",70,1,308,1,70,"Low",70,0,15
"B",20,1,1610,0,70,"Low",20,0,15
"B",81,1,422,0,70,"Low",81,0,15
"B",5,1,2601,0,70,"Low",5,0,15
"B",10,1,1113,1,70,"Low",10,0,15
"B",88,0,286,1,70,"Low",88,0,15
"B",32,1,588,1,70,"Low",32,0,15
"B",47,1,676,1,70,"Low",47,0,15
"B",67,0,302,1,70,"Low",67,0,15
"B",79,1,289,1,70,"Low",79,0,15
"B",41,1,565,0,70,"Low",41,0,15
"B",23,0,1909,1,70,"Low",23,0,15
"C",50,0,492,0,30,"Low",50,0,15
"C",30,0,1368,0,30,"Low",30,0,15
"C",65,1,265,0,30,"Low",65,0,15
"C",28,1,1421,1,30,"Low",28,0,15
"C",94,1,347,0,30,"Low",94,0,15
"C",99,1,1495,0,30,"Low",99,0,15
"C",69,0,293,0,30,"Low",69,0,15
"C",19,1,640,0,30,"Low",19,0,15
"C",55,1,277,1,30,"Low",55,0,15
"C",91,0,1408,1,30,"Low",91,0,15
"C",48,0,391,0,30,"Low",48,0,15
"C",78,1,267,0,30,"Low",78,0,15
"C",11,1,1200,0,30,"Low",11,0,15
"C",16,1,2787,0,30,"Low",16,0,15
"C",34,0,1126,0,30,"Low",34,0,15
"C",37,1,1147,0,30,"Low",37,0,15
"C",21,1,2628,0,30,"Low",21,0,15
"C",62,0,348,0,30,"Low",62,0,15
"C",60,0,360,0,30,"Low",60,0,15
"C",82,0,380,0,30,"Low",82,0,15
"C",4,1,1188,1,30,"Low",4,0,15
"C",86,1,672,0,30,"Low",86,0,15
"C",8,1,915,1,30,"Low",8,0,15
"C",74,1,293,0,30,"Low",74,0,15
"C",44,1,524,0,30,"Low",44,0,15
"D",51,1,373,1,70,"High",51,0,15
"D",84,1,471,0,70,"High",84,0,15
"D",77,0,295,1,70,"High",77,0,15
"D",75,0,329,1,70,"High",75,0,15
"D",13,0,1186,1,70,"High",13,0,15
"D",96,0,734,0,70,"High",96,0,15
"D",66,0,973,1,70,"High",66,0,15
"D",3,1,3384,0,70,"High",3,0,15
"D",92,0,262,0,70,"High",92,0,15
"D",22,1,654,1,70,"High",22,0,15
"D",9,0,539,1,70,"High",9,0,15
"D",33,0,1710,0,70,"High",33,0,15
"D",87,0,340,0,70,"High",87,0,15
"D",29,0,905,0,70,"High",29,0,15
"D",38,1,1396,1,70,"High",38,0,15
"D",61,1,475,1,70,"High",61,0,15
"D",18,0,951,0,70,"High",18,0,15
"D",42,1,3794,1,70,"High",42,0,15
"D",59,1,329,1,70,"High",59,0,15
"D",100,1,1024,1,70,"High",100,0,15
"D",7,1,3622,0,70,"High",7,0,15
"D",45,0,405,1,70,"High",45,0,15
"D",26,0,1342,1,70,"High",26,0,15
"D",72,1,316,1,70,"High",72,0,15
"D",53,1,341,1,70,"High",53,0,15
"A",85,0,1650,1,30,"High",5244,0,16
"A",90,0,477,0,30,"High",5249,0,16
"A",5,1,1147,0,30,"High",5167,0,16
"A",16,1,325,0,30,"High",5177,0,16
"A",10,1,616,1,30,"High",5172,0,16
"A",20,1,1228,0,30,"High",5181,0,16
"A",61,1,541,0,30,"High",5221,0,16
"A",44,1,2337,1,30,"High",5205,0,16
"A",59,1,233,0,30,"High",5219,0,16
"A",27,1,233,0,30,"High",5188,0,16
"A",68,0,3928,0,30,"High",5228,0,16
"A",33,0,975,1,30,"High",5194,0,16
"A",97,1,477,0,30,"High",5256,0,16
"A",31,1,2544,0,30,"High",5192,0,16
"A",94,1,410,0,30,"High",5253,0,16
"A",52,1,1545,0,30,"High",5212,0,16
"A",74,1,959,0,30,"High",5233,0,16
"A",2,0,4097,0,30,"High",5164,0,16
"A",55,0,888,0,30,"High",5215,0,16
"A",72,1,261,0,30,"High",5232,0,16
"A",37,0,791,0,30,"High",5198,0,16
"A",82,1,827,1,30,"High",5241,0,16
"A",80,1,1271,1,30,"High",5239,0,16
"A",23,1,559,0,30,"High",5184,0,16
"B",43,0,1784,1,70,"Low",5204,2,16
"B",4,0,2851,1,70,"Low",5166,2,16
"B",86,1,528,1,70,"Low",5245,2,16
"B",13,0,2186,1,70,"Low",5174,2,16
"B",91,1,441,1,70,"Low",5250,2,16
"B",6,1,1727,1,70,"Low",5168,2,16
"B",17,1,225,0,70,"Low",5178,2,16
"B",81,0,4944,1,70,"Low",5240,2,16
"B",51,0,3434,1,70,"Low",5211,2,16
"B",56,0,677,1,70,"Low",5216,2,16
"B",28,1,289,0,70,"Low",5189,2,16
"B",70,1,824,0,70,"Low",5230,2,16
"B",30,1,151,1,70,"Low",5191,2,16
"B",60,1,227,1,70,"Low",5220,2,16
"B",48,1,2005,0,70,"Low",5208,2,16
"B",75,1,546,1,70,"Low",5234,2,16
"B",93,1,541,0,70,"Low",5252,2,16
"B",36,0,1328,1,70,"Low",5197,2,16
"B",64,0,1062,1,70,"Low",5224,2,16
"B",24,1,243,1,70,"Low",5185,2,16
"B",39,0,1516,1,70,"Low",5200,2,16
"B",67,1,16868,1,70,"Low",5227,2,16
"B",78,0,1037,1,70,"Low",5237,2,16
"C",3,0,16605,0,30,"Low",5165,3,16
"C",58,1,1048,0,30,"Low",5218,3,16
"C",46,0,2063,1,30,"Low",5207,3,16
"C",100,1,1317,1,30,"Low",5258,3,16
"C",9,1,4362,0,30,"Low",5171,3,16
"C",62,1,288,0,30,"Low",5222,3,16
"C",79,1,3216,0,30,"Low",5238,3,16
"C",84,1,3965,0,30,"Low",5243,3,16
"C",29,1,86,0,30,"Low",5190,3,16
"C",49,1,341,1,30,"Low",5209,3,16
"C",71,1,941,0,30,"Low",5231,3,16
"C",88,1,456,0,30,"Low",5247,3,16
"C",42,1,9278,1,30,"Low",5203,3,16
"C",53,1,907,0,30,"Low",5213,3,16
"C",34,1,2416,1,30,"Low",5195,3,16
"C",92,1,980,0,30,"Low",5251,3,16
"C",7,1,2219,0,30,"Low",5169,3,16
"C",40,1,431,0,30,"Low",5201,3,16
"C",22,0,1010,0,30,"Low",5183,3,16
"C",96,0,2040,0,30,"Low",5255,3,16
"C",15,1,251,0,30,"Low",5176,3,16
"C",65,1,742,0,30,"Low",5225,3,16
"C",19,1,1281,1,30,"Low",5180,3,16
"C",76,1,3978,0,30,"Low",5235,3,16
"C",26,1,239,0,30,"Low",5187,3,16
"D",98,1,682,1,70,"High",5257,4,16
"D",1,1,8189,1,70,"High",5163,4,16
"D",57,1,537,0,70,"High",5217,4,16
"D",12,1,1278,1,70,"High",5173,4,16
"D",87,0,2073,1,70,"High",5246,4,16
"D",45,1,2303,1,70,"High",5206,4,16
"D",41,1,517,1,70,"High",5202,4,16
"D",83,1,1627,1,70,"High",5242,4,16
"D",8,1,1255,1,70,"High",5170,4,16
"D",50,1,1222,1,70,"High",5210,4,16
"D",89,1,824,1,70,"High",5248,4,16
"D",25,0,1224,0,70,"High",5186,4,16
"D",95,1,323,1,70,"High",5254,4,16
"D",14,0,916,1,70,"High",5175,4,16
"D",54,1,397,1,70,"High",5214,4,16
"D",63,1,219,1,70,"High",5223,4,16
"D",69,0,1095,0,70,"High",5229,4,16
"D",18,1,193,1,70,"High",5179,4,16
"D",66,1,2047,1,70,"High",5226,4,16
"D",21,1,731,1,70,"High",5182,4,16
"D",38,1,640,1,70,"High",5199,4,16
"D",77,1,368,1,70,"High",5236,4,16
"D",32,1,1601,1,70,"High",5193,4,16
"D",35,1,1834,1,70,"High",5196,4,16
"A",28,1,948,0,30,"High",2416,2,17
"A",74,1,1023,0,30,"High",2460,2,17
"A",51,1,1636,1,30,"High",2438,2,17
"A",12,0,2087,1,30,"High",2400,2,17
"A",61,0,1083,0,30,"High",2448,2,17
"A",77,1,1848,0,30,"High",2463,2,17
"A",15,1,1597,0,30,"High",2403,2,17
"A",5,1,2572,0,30,"High",2393,2,17
"A",23,1,7336,0,30,"High",2411,2,17
"A",93,1,1002,1,30,"High",2479,2,17
"A",72,1,598,0,30,"High",2458,2,17
"A",35,0,1220,0,30,"High",2423,2,17
"A",59,1,1099,0,30,"High",2446,2,17
"A",17,1,1389,1,30,"High",2405,2,17
"A",99,1,1887,1,30,"High",2485,2,17
"A",38,0,4981,1,30,"High",2426,2,17
"A",3,1,4972,0,30,"High",2391,2,17
"A",32,1,1080,0,30,"High",2420,2,17
"A",87,1,641,0,30,"High",2473,2,17
"A",68,0,919,0,30,"High",2455,2,17
"A",89,1,1561,0,30,"High",2475,2,17
"A",82,1,7763,1,30,"High",2468,2,17
"A",44,1,699,1,30,"High",2432,2,17
"A",53,0,916,0,30,"High",2440,2,17
"B",66,0,476,0,70,"Low",2453,1,17
"B",52,0,1162,1,70,"Low",2439,1,17
"B",27,1,1659,0,70,"Low",2415,1,17
"B",18,0,2261,1,70,"Low",2406,1,17
"B",70,1,1513,0,70,"Low",2456,1,17
"B",56,0,1284,1,70,"Low",2443,1,17
"B",76,1,1462,0,70,"Low",2462,1,17
"B",33,1,756,0,70,"Low",2421,1,17
"B",13,0,1679,1,70,"Low",2401,1,17
"B",92,0,357,1,70,"Low",2478,1,17
"B",10,1,3161,1,70,"Low",2398,1,17
"B",97,1,427,1,70,"Low",2483,1,17
"B",41,0,14311,0,70,"Low",2429,1,17
"B",58,1,670,1,70,"Low",2445,1,17
"B",2,0,5620,0,70,"Low",2390,1,17
"B",31,1,1633,1,70,"Low",2419,1,17
"B",45,1,1854,1,70,"Low",2433,1,17
"B",63,1,757,0,70,"Low",2450,1,17
"B",79,1,484,0,70,"Low",2465,1,17
"B",8,1,2950,0,70,"Low",2396,1,17
"B",83,0,1789,0,70,"Low",2469,1,17
"B",37,1,1622,1,70,"Low",2425,1,17
"B",95,0,950,1,70,"Low",2481,1,17
"B",21,1,1453,1,70,"Low",2409,1,17
"B",86,0,1449,1,70,"Low",2472,1,17
"C",36,1,2898,0,30,"Low",2424,1,17
"C",11,1,5122,1,30,"Low",2399,1,17
"C",71,0,340,1,30,"Low",2457,1,17
"C",19,0,835,0,30,"Low",2407,1,17
"C",73,1,556,0,30,"Low",2459,1,17
"C",64,1,4349,0,30,"Low",2451,1,17
"C",16,1,2740,0,30,"Low",2404,1,17
"C",24,0,2330,0,30,"Low",2412,1,17
"C",67,0,350,0,30,"Low",2454,1,17
"C",26,1,3156,0,30,"Low",2414,1,17
"C",50,0,2008,1,30,"Low",2437,1,17
"C",40,1,1856,1,30,"Low",2428,1,17
"C",80,1,613,0,30,"Low",2466,1,17
"C",54,1,445,0,30,"Low",2441,1,17
"C",96,0,716,1,30,"Low",2482,1,17
"C",43,1,1446,0,30,"Low",2431,1,17
"C",57,0,821,1,30,"Low",2444,1,17
"C",100,0,2317,0,30,"Low",2486,1,17
"C",4,1,5545,1,30,"Low",2392,1,17
"C",90,0,2057,1,30,"Low",2476,1,17
"C",6,1,2056,0,30,"Low",2394,1,17
"C",88,1,1068,0,30,"Low",2474,1,17
"C",48,1,4018,0,30,"Low",2435,1,17
"C",84,0,1444,0,30,"Low",2470,1,17
"C",30,1,1687,0,30,"Low",2418,1,17
"D",91,1,966,0,70,"High",2477,2,17
"D",98,1,981,1,70,"High",2484,2,17
"D",55,1,837,1,70,"High",2442,2,17
"D",34,1,2599,1,70,"High",2422,2,17
"D",39,1,572,0,70,"High",2427,2,17
"D",25,1,1137,0,70,"High",2413,2,17
"D",49,1,1420,1,70,"High",2436,2,17
"D",1,1,13829,1,70,"High",2389,2,17
"D",22,1,4215,1,70,"High",2410,2,17
"D",94,1,659,1,70,"High",2480,2,17
"D",29,1,1767,1,70,"High",2417,2,17
"D",62,1,533,0,70,"High",2449,2,17
"D",46,0,917,1,70,"High",2434,2,17
"D",65,1,1047,0,70,"High",2452,2,17
"D",60,1,1107,1,70,"High",2447,2,17
"D",78,0,294,1,70,"High",2464,2,17
"D",81,1,1229,1,70,"High",2467,2,17
"D",20,0,1495,1,70,"High",2408,2,17
"D",75,0,321,0,70,"High",2461,2,17
"D",14,1,1388,1,70,"High",2402,2,17
"D",42,1,669,0,70,"High",2430,2,17
"D",7,1,2981,1,70,"High",2395,2,17
"D",85,1,2389,1,70,"High",2471,2,17
"D",9,0,1797,1,70,"High",2397,2,17
"A",6,1,2089,1,30,"High",4278,2,18
"A",4,1,1174,0,30,"High",4276,2,18
"A",75,1,5321,0,30,"High",4347,2,18
"A",44,1,738,0,30,"High",4316,2,18
"A",49,1,440,0,30,"High",4321,2,18
"A",46,0,1058,0,30,"High",4318,2,18
"A",55,1,939,0,30,"High",4327,2,18
"A",16,1,5690,0,30,"High",4288,2,18
"A",79,1,674,1,30,"High",4351,2,18
"A",36,0,1537,0,30,"High",4308,2,18
"A",100,1,210,1,30,"High",4372,2,18
"A",86,1,241,0,30,"High",4358,2,18
"A",83,1,571,0,30,"High",4355,2,18
"A",39,1,1293,0,30,"High",4311,2,18
"A",64,1,5886,1,30,"High",4336,2,18
"A",27,0,1210,1,30,"High",4299,2,18
"A",72,1,1365,1,30,"High",4344,2,18
"A",95,1,215,0,30,"High",4367,2,18
"A",21,1,1491,0,30,"High",4293,2,18
"A",58,1,1297,1,30,"High",4330,2,18
"A",66,1,2163,1,30,"High",4338,2,18
"A",19,1,1277,0,30,"High",4291,2,18
"A",91,1,140,0,30,"High",4363,2,18
"A",32,0,762,0,30,"High",4304,2,18
"A",12,1,1155,0,30,"High",4284,2,18
"B",15,0,1008,1,70,"Low",4287,2,18
"B",53,0,1039,1,70,"Low",4325,2,18
"B",82,1,144,1,70,"Low",4354,2,18
"B",9,0,1097,1,70,"Low",4281,2,18
"B",94,1,439,1,70,"Low",4366,2,18
"B",77,1,863,1,70,"Low",4349,2,18
"B",7,0,1302,1,70,"Low",4279,2,18
"B",74,0,1092,1,70,"Low",4346,2,18
"B",85,1,327,1,70,"Low",4357,2,18
"B",57,1,715,1,70,"Low",4329,2,18
"B",24,0,2613,1,70,"Low",4296,2,18
"B",42,1,900,1,70,"Low",4314,2,18
"B",26,0,809,1,70,"Low",4298,2,18
"B",71,1,892,1,70,"Low",4343,2,18
"B",67,0,1059,1,70,"Low",4339,2,18
"B",17,0,1894,1,70,"Low",4289,2,18
"B",47,1,584,0,70,"Low",4319,2,18
"B",51,0,821,1,70,"Low",4323,2,18
"B",97,1,213,0,70,"Low",4369,2,18
"B",35,0,523,1,70,"Low",4307,2,18
"B",30,0,769,1,70,"Low",4302,2,18
"B",61,0,785,1,70,"Low",4333,2,18
"B",2,0,1858,0,70,"Low",4274,2,18
"B",40,1,842,1,70,"Low",4312,2,18
"B",89,1,176,1,70,"Low",4361,2,18
"C",5,0,5696,0,30,"Low",4277,2,18
"C",65,0,979,1,30,"Low",4337,2,18
"C",41,1,973,1,30,"Low",4313,2,18
"C",88,1,287,0,30,"Low",4360,2,18
"C",81,1,313,0,30,"Low",4353,2,18
"C",48,1,692,0,30,"Low",4320,2,18
"C",10,0,1141,1,30,"Low",4282,2,18
"C",54,1,230,0,30,"Low",4326,2,18
"C",96,1,241,0,30,"Low",4368,2,18
"C",37,0,705,0,30,"Low",4309,2,18
"C",60,0,730,0,30,"Low",4332,2,18
"C",50,1,482,1,30,"Low",4322,2,18
"C",34,0,753,0,30,"Low",4306,2,18
"C",3,0,1442,0,30,"Low",4275,2,18
"C",92,1,174,0,30,"Low",4364,2,18
"C",14,0,1246,1,30,"Low",4286,2,18
"C",63,0,2513,0,30,"Low",4335,2,18
"C",69,1,1061,0,30,"Low",4341,2,18
"C",98,1,219,1,30,"Low",4370,2,18
"C",28,0,648,0,30,"Low",4300,2,18
"C",20,0,1027,0,30,"Low",4292,2,18
"C",31,0,630,0,30,"Low",4303,2,18
"C",78,1,850,0,30,"Low",4350,2,18
"C",23,0,1038,0,30,"Low",4295,2,18
"C",76,1,1329,0,30,"Low",4348,2,18
"D",13,1,1584,1,70,"High",4285,2,18
"D",80,1,465,0,70,"High",4352,2,18
"D",56,1,739,0,70,"High",4328,2,18
"D",87,1,173,1,70,"High",4359,2,18
"D",84,1,231,1,70,"High",4356,2,18
"D",43,0,930,1,70,"High",4315,2,18
"D",59,0,1081,0,70,"High",4331,2,18
"D",1,1,6691,1,70,"High",4273,2,18
"D",38,1,807,0,70,"High",4310,2,18
"D",8,0,2798,1,70,"High",4280,2,18
"D",93,1,223,1,70,"High",4365,2,18
"D",70,1,414,1,70,"High",4342,2,18
"D",45,0,661,0,70,"High",4317,2,18
"D",29,1,777,1,70,"High",4301,2,18
"D",68,1,728,0,70,"High",4340,2,18
"D",11,0,1240,1,70,"High",4283,2,18
"D",18,1,1812,1,70,"High",4290,2,18
"D",90,1,235,0,70,"High",4362,2,18
"D",73,0,1248,0,70,"High",4345,2,18
"D",25,1,923,1,70,"High",4297,2,18
"D",52,1,590,1,70,"High",4324,2,18
"D",22,1,852,1,70,"High",4294,2,18
"D",33,1,594,1,70,"High",4305,2,18
"D",99,1,302,1,70,"High",4371,2,18
"D",62,1,1074,1,70,"High",4334,2,18
"A",69,1,214,0,30,"High",3049,3,19
"A",86,1,981,0,30,"High",3066,3,19
"A",41,1,270,0,30,"High",3021,3,19
"A",38,0,3080,0,30,"High",3018,3,19
"A",29,1,302,0,30,"High",3009,3,19
"A",2,1,1252,1,30,"High",2982,3,19
"A",79,1,286,1,30,"High",3059,3,19
"A",52,1,1808,0,30,"High",3032,3,19
"A",48,0,60,0,30,"High",3028,3,19
"A",16,0,636,0,30,"High",2996,3,19
"A",82,0,580,1,30,"High",3062,3,19
"A",56,1,311,0,30,"High",3036,3,19
"A",63,1,9171,0,30,"High",3043,3,19
"A",96,0,313,0,30,"High",3076,3,19
"A",25,1,366,0,30,"High",3005,3,19
"A",36,0,859,0,30,"High",3016,3,19
"A",90,0,5562,1,30,"High",3070,3,19
"A",20,0,396,0,30,"High",3000,3,19
"A",60,0,1062,0,30,"High",3040,3,19
"A",12,1,573,1,30,"High",2992,3,19
"A",65,1,181,0,30,"High",3045,3,19
"A",8,1,441,0,30,"High",2988,3,19
"A",100,1,352,1,30,"High",3080,3,19
"A",76,0,173,0,30,"High",3056,3,19
"A",23,0,241,0,30,"High",3003,3,19
"B",5,1,3348,1,70,"Low",2985,3,19
"B",43,1,278,1,70,"Low",3023,3,19
"B",3,0,1060,1,70,"Low",2983,3,19
"B",14,1,233,0,70,"Low",2994,3,19
"B",87,1,83,0,70,"Low",3067,3,19
"B",89,1,2,1,70,"Low",3069,3,19
"B",73,1,220,0,70,"Low",3053,3,19
"B",17,1,314,1,70,"Low",2997,3,19
"B",27,1,492,1,70,"Low",3007,3,19
"B",67,1,14,1,70,"Low",3047,3,19
"B",53,0,137,1,70,"Low",3033,3,19
"B",45,0,870,1,70,"Low",3025,3,19
"B",84,0,3267,1,70,"Low",3064,3,19
"B",94,0,1817,0,70,"Low",3074,3,19
"B",39,1,330,0,70,"Low",3019,3,19
"B",70,0,196,1,70,"Low",3050,3,19
"B",31,1,289,1,70,"Low",3011,3,19
"B",35,1,359,1,70,"Low",3015,3,19
"B",59,1,583,1,70,"Low",3039,3,19
"B",80,0,1676,0,70,"Low",3060,3,19
"B",9,0,622,0,70,"Low",2989,3,19
"B",62,1,377,1,70,"Low",3042,3,19
"B",51,0,125,1,70,"Low",3031,3,19
"B",97,1,197,0,70,"Low",3077,3,19
"B",21,1,238,1,70,"Low",3001,3,19
"C",81,1,334,0,30,"Low",3061,3,19
"C",88,1,142,0,30,"Low",3068,3,19
"C",7,1,675,0,30,"Low",2987,3,19
"C",28,0,705,1,30,"Low",3008,3,19
"C",4,0,2406,1,30,"Low",2984,3,19
"C",42,0,265,0,30,"Low",3022,3,19
"C",95,1,193,0,30,"Low",3075,3,19
"C",46,0,158,1,30,"Low",3026,3,19
"C",74,0,221,0,30,"Low",3054,3,19
"C",33,1,257,0,30,"Low",3013,3,19
"C",66,0,209,0,30,"Low",3046,3,19
"C",11,0,778,1,30,"Low",2991,3,19
"C",57,1,96,0,30,"Low",3037,3,19
"C",13,0,3034,1,30,"Low",2993,3,19
"C",55,1,760,0,30,"Low",3035,3,19
"C",64,0,945,0,30,"Low",3044,3,19
"C",49,0,142,0,30,"Low",3029,3,19
"C",72,0,3,1,30,"Low",3052,3,19
"C",37,1,299,1,30,"Low",3017,3,19
"C",78,0,284,0,30,"Low",3058,3,19
"C",19,0,1821,1,30,"Low",2999,3,19
"C",30,0,338,0,30,"Low",3010,3,19
"C",24,1,50,1,30,"Low",3004,3,19
"C",99,1,389,0,30,"Low",3079,3,19
"C",92,0,263,0,30,"Low",3072,3,19
"D",1,1,5008,1,70,"High",2981,3,19
"D",85,1,63,0,70,"High",3065,3,19
"D",44,0,771,0,70,"High",3024,3,19
"D",15,1,864,0,70,"High",2995,3,19
"D",71,1,279,0,70,"High",3051,3,19
"D",6,1,540,0,70,"High",2986,3,19
"D",68,0,405,1,70,"High",3048,3,19
"D",75,1,220,0,70,"High",3055,3,19
"D",83,1,238,0,70,"High",3063,3,19
"D",26,1,359,0,70,"High",3006,3,19
"D",32,0,327,1,70,"High",3012,3,19
"D",10,1,322,1,70,"High",2990,3,19
"D",50,0,135,0,70,"High",3030,3,19
"D",54,1,48,1,70,"High",3034,3,19
"D",98,0,182,0,70,"High",3078,3,19
"D",93,1,329,1,70,"High",3073,3,19
"D",18,1,673,1,70,"High",2998,3,19
"D",40,0,405,1,70,"High",3020,3,19
"D",77,1,226,0,70,"High",3057,3,19
"D",47,0,2073,0,70,"High",3027,3,19
"D",58,1,215,1,70,"High",3038,3,19
"D",34,0,426,1,70,"High",3014,3,19
"D",22,1,2940,0,70,"High",3002,3,19
"D",91,1,12805,0,70,"High",3071,3,19
"D",61,0,28,1,70,"High",3041,3,19
"A",51,1,923,1,30,"High",350,2,20
"A",55,1,633,0,30,"High",354,2,20
"A",12,1,2789,0,30,"High",311,2,20
"A",88,1,1458,1,30,"High",387,2,20
"A",19,0,1107,0,30,"High",318,2,20
"A",36,0,921,0,30,"High",335,2,20
"A",39,0,776,0,30,"High",338,2,20
"A",91,1,1084,0,30,"High",390,2,20
"A",62,1,532,0,30,"High",361,2,20
"A",82,1,7195,0,30,"High",381,2,20
"A",5,0,1836,1,30,"High",305,2,20
"A",77,1,772,1,30,"High",376,2,20
"A",42,1,457,0,30,"High",341,2,20
"A",31,1,756,0,30,"High",330,2,20
"A",74,0,1392,0,30,"High",373,2,20
"A",95,1,736,0,30,"High",394,2,20
"A",71,1,660,1,30,"High",370,2,20
"A",14,0,974,0,30,"High",313,2,20
"A",21,0,1289,0,30,"High",320,2,20
"A",3,1,1486,0,30,"High",303,2,20
"A",66,0,461,0,30,"High",365,2,20
"A",25,0,1936,0,30,"High",324,2,20
"A",57,1,563,1,30,"High",356,2,20
"A",47,0,743,0,30,"High",346,2,20
"A",97,1,1332,0,30,"High",396,2,20
"B",93,0,819,1,70,"Low",392,2,20
"B",79,0,874,1,70,"Low",378,2,20
"B",90,1,1471,1,70,"Low",389,2,20
"B",8,0,1166,1,70,"Low",308,2,20
"B",38,0,773,1,70,"Low",337,2,20
"B",16,1,1471,1,70,"Low",315,2,20
"B",56,0,704,1,70,"Low",355,2,20
"B",4,0,2496,1,70,"Low",304,2,20
"B",87,1,1586,0,70,"Low",386,2,20
"B",23,0,1055,1,70,"Low",322,2,20
"B",83,0,729,0,70,"Low",382,2,20
"B",76,1,610,0,70,"Low",375,2,20
"B",99,1,490,1,70,"Low",398,2,20
"B",41,0,1535,0,70,"Low",340,2,20
"B",46,0,790,1,70,"Low",345,2,20
"B",52,1,1034,1,70,"Low",351,2,20
"B",28,1,957,0,70,"Low",327,2,20
"B",33,0,697,1,70,"Low",332,2,20
"B",59,0,1101,0,70,"Low",358,2,20
"B",68,0,291,0,70,"Low",367,2,20
"B",61,0,449,0,70,"Low",360,2,20
"B",18,1,1116,0,70,"Low",317,2,20
"B",30,0,746,1,70,"Low",329,2,20
"B",72,0,1003,0,70,"Low",371,2,20
"C",37,1,492,1,30,"Low",336,0,20
"C",86,1,3200,0,30,"Low",385,0,20
"C",49,0,702,0,30,"Low",348,0,20
"C",75,0,3290,1,30,"Low",374,0,20
"C",20,1,596,0,30,"Low",319,0,20
"C",9,1,742,1,30,"Low",309,0,20
"C",89,0,3084,0,30,"Low",388,0,20
"C",43,1,1065,0,30,"Low",342,0,20
"C",26,0,1518,0,30,"Low",325,0,20
"C",7,1,1166,1,30,"Low",307,0,20
"C",63,1,827,0,30,"Low",362,0,20
"C",58,0,644,0,30,"Low",357,0,20
"C",45,1,1008,0,30,"Low",344,0,20
"C",2,0,1972,0,30,"Low",302,0,20
"C",80,1,641,0,30,"Low",379,0,20
"C",22,0,7006,0,30,"Low",321,0,20
"C",15,1,663,0,30,"Low",314,0,20
"C",34,0,586,0,30,"Low",333,0,20
"C",98,1,1019,0,30,"Low",397,0,20
"C",94,0,570,1,30,"Low",393,0,20
"C",32,0,1770,0,30,"Low",331,0,20
"C",84,0,820,0,30,"Low",383,0,20
"C",54,1,682,1,30,"Low",353,0,20
"C",65,0,581,0,30,"Low",364,0,20
"C",69,1,1068,0,30,"Low",368,0,20
"D",35,1,498,1,70,"High",334,1,20
"D",50,1,469,0,70,"High",349,1,20
"D",48,1,494,0,70,"High",347,1,20
"D",10,1,1436,1,70,"High",310,1,20
"D",13,1,1022,1,70,"High",312,1,20
"D",85,1,599,1,70,"High",384,1,20
"D",44,1,1045,1,70,"High",343,1,20
"D",1,1,3120,1,70,"High",301,1,20
"D",92,1,1254,0,70,"High",391,1,20
"D",6,1,526,1,70,"High",306,1,20
"D",96,1,880,1,70,"High",395,1,20
"D",60,1,466,0,70,"High",359,1,20
"D",100,1,821,1,70,"High",399,1,20
"D",78,0,1144,0,70,"High",377,1,20
"D",81,0,493,1,70,"High",380,1,20
"D",67,0,484,1,70,"High",366,1,20
"D",24,1,631,1,70,"High",323,1,20
"D",53,1,519,0,70,"High",352,1,20
"D",17,1,843,1,70,"High",316,1,20
"D",70,1,982,1,70,"High",369,1,20
"D",27,1,519,1,70,"High",326,1,20
"D",40,1,521,1,70,"High",339,1,20
"D",29,1,639,1,70,"High",328,1,20
"D",73,1,454,1,70,"High",372,1,20
"D",64,1,451,0,70,"High",363,1,20
"A",71,1,681,0,30,"High",5627,1,21
"A",18,1,560,0,30,"High",5574,1,21
"A",91,1,376,0,30,"High",5647,1,21
"A",29,1,273,0,30,"High",5585,1,21
"A",94,1,221,0,30,"High",5650,1,21
"A",26,1,688,0,30,"High",5582,1,21
"A",79,1,83,1,30,"High",5635,1,21
"A",10,1,4011,0,30,"High",5566,1,21
"A",22,1,790,0,30,"High",5578,1,21
"A",61,1,387,1,30,"High",5617,1,21
"A",97,1,27,0,30,"High",5653,1,21
"A",57,1,51,1,30,"High",5613,1,21
"A",42,1,24,0,30,"High",5598,1,21
"A",55,1,110,0,30,"High",5611,1,21
"A",7,1,1163,0,30,"High",5563,1,21
"A",48,1,232,0,30,"High",5604,1,21
"A",3,1,1208,1,30,"High",5559,1,21
"A",65,1,829,0,30,"High",5621,1,21
"A",33,1,441,0,30,"High",5589,1,21
"A",38,1,769,1,30,"High",5594,1,21
"A",87,1,10,1,30,"High",5643,1,21
"A",15,1,834,0,30,"High",5571,1,21
"A",50,1,225,0,30,"High",5606,1,21
"A",82,1,451,1,30,"High",5638,1,21
"A",73,1,617,0,30,"High",5629,1,21
"B",100,1,1177,0,70,"Low",5656,1,21
"B",25,0,373,0,70,"Low",5581,1,21
"B",95,1,126,1,70,"Low",5651,1,21
"B",23,0,494,1,70,"Low",5579,1,21
"B",58,1,442,1,70,"Low",5614,1,21
"B",51,1,158,1,70,"Low",5607,1,21
"B",67,0,6398,1,70,"Low",5623,1,21
"B",53,1,89,1,70,"Low",5609,1,21
"B",75,1,246,1,70,"Low",5631,1,21
"B",30,1,326,1,70,"Low",5586,1,21
"B",77,1,208,1,70,"Low",5633,1,21
"B",12,1,1139,0,70,"Low",5568,1,21
"B",39,1,212,0,70,"Low",5595,1,21
"B",14,0,833,1,70,"Low",5570,1,21
"B",81,1,10014,1,70,"Low",5637,1,21
"B",70,0,1746,1,70,"Low",5626,1,21
"B",4,0,1774,1,70,"Low",5560,1,21
"B",44,1,219,0,70,"Low",5600,1,21
"B",19,0,705,1,70,"Low",5575,1,21
"B",46,1,243,0,70,"Low",5602,1,21
"B",62,1,2074,0,70,"Low",5618,1,21
"B",8,0,5137,1,70,"Low",5564,1,21
"B",36,1,360,1,70,"Low",5592,1,21
"B",90,1,156,0,70,"Low",5646,1,21
"B",85,1,102,1,70,"Low",5641,1,21
"C",59,1,179,0,30,"Low",5615,1,21
"C",54,1,192,0,30,"Low",5610,1,21
"C",27,1,696,0,30,"Low",5583,1,21
"C",96,1,274,0,30,"Low",5652,1,21
"C",99,1,542,0,30,"Low",5655,1,21
"C",31,1,1558,1,30,"Low",5587,1,21
"C",5,1,1732,0,30,"Low",5561,1,21
"C",88,1,10,1,30,"Low",5644,1,21
"C",34,1,226,0,30,"Low",5590,1,21
"C",17,1,1293,0,30,"Low",5573,1,21
"C",40,1,264,0,30,"Low",5596,1,21
"C",43,1,246,1,30,"Low",5599,1,21
"C",13,0,1180,1,30,"Low",5569,1,21
"C",52,1,374,0,30,"Low",5608,1,21
"C",74,1,282,0,30,"Low",5630,1,21
"C",2,0,3698,1,30,"Low",5558,1,21
"C",11,1,1538,0,30,"Low",5567,1,21
"C",21,0,1303,1,30,"Low",5577,1,21
"C",83,1,279,0,30,"Low",5639,1,21
"C",92,1,118,0,30,"Low",5648,1,21
"C",68,0,863,0,30,"Low",5624,1,21
"C",64,0,1383,0,30,"Low",5620,1,21
"C",72,0,662,1,30,"Low",5628,1,21
"C",45,1,244,1,30,"Low",5601,1,21
"C",80,1,253,1,30,"Low",5636,1,21
"D",28,1,280,1,70,"High",5584,1,21
"D",16,1,1881,1,70,"High",5572,1,21
"D",98,1,424,1,70,"High",5654,1,21
"D",84,1,17,1,70,"High",5640,1,21
"D",63,1,1612,1,70,"High",5619,1,21
"D",24,0,307,1,70,"High",5580,1,21
"D",93,1,172,0,70,"High",5649,1,21
"D",66,1,1698,0,70,"High",5622,1,21
"D",78,1,291,0,70,"High",5634,1,21
"D",1,1,3175,1,70,"High",5557,1,21
"D",69,1,909,1,70,"High",5625,1,21
"D",56,1,116,1,70,"High",5612,1,21
"D",60,1,203,1,70,"High",5616,1,21
"D",9,1,912,0,70,"High",5565,1,21
"D",20,1,2554,1,70,"High",5576,1,21
"D",47,1,211,1,70,"High",5603,1,21
"D",89,1,436,1,70,"High",5645,1,21
"D",86,1,72,0,70,"High",5642,1,21
"D",76,1,264,0,70,"High",5632,1,21
"D",37,1,463,1,70,"High",5593,1,21
"D",32,1,415,1,70,"High",5588,1,21
"D",35,1,195,1,70,"High",5591,1,21
"D",41,1,192,1,70,"High",5597,1,21
"D",6,1,1247,1,70,"High",5562,1,21
"D",49,1,228,0,70,"High",5605,1,21
"A",67,1,1867,0,30,"High",3346,1,22
"A",24,1,1242,0,30,"High",3303,1,22
"A",62,1,901,0,30,"High",3341,1,22
"A",10,1,439,0,30,"High",3290,1,22
"A",71,1,656,1,30,"High",3350,1,22
"A",13,0,5869,0,30,"High",3293,1,22
"A",28,1,384,0,30,"High",3307,1,22
"A",60,1,2934,0,30,"High",3339,1,22
"A",74,1,1434,0,30,"High",3353,1,22
"A",36,1,2527,0,30,"High",3315,1,22
"A",51,1,870,0,30,"High",3330,1,22
"A",77,1,2232,1,30,"High",3356,1,22
"A",89,1,321,0,30,"High",3368,1,22
"A",54,1,2715,0,30,"High",3333,1,22
"A",83,1,315,1,30,"High",3362,1,22
"A",94,0,744,1,30,"High",3373,1,22
"A",100,1,864,0,30,"High",3379,1,22
"A",44,0,858,0,30,"High",3323,1,22
"A",85,1,3669,1,30,"High",3364,1,22
"A",19,1,590,1,30,"High",3299,1,22
"A",46,1,765,0,30,"High",3325,1,22
"A",7,1,9437,0,30,"High",3287,1,22
"A",40,1,6814,0,30,"High",3319,1,22
"A",31,1,2419,1,30,"High",3310,1,22
"A",4,1,3622,0,30,"High",3284,1,22
"B",49,1,1611,1,70,"Low",3328,2,22
"B",33,0,1135,0,70,"Low",3312,2,22
"B",99,1,996,0,70,"Low",3378,2,22
"B",55,1,519,1,70,"Low",3334,2,22
"B",30,1,995,1,70,"Low",3309,2,22
"B",90,1,6894,0,70,"Low",3369,2,22
"B",25,1,682,0,70,"Low",3304,2,22
"B",84,1,13690,1,70,"Low",3363,2,22
"B",68,1,834,1,70,"Low",3347,2,22
"B",80,1,635,1,70,"Low",3359,2,22
"B",3,0,4809,1,70,"Low",3283,2,22
"B",38,1,189,1,70,"Low",3317,2,22
"B",41,1,523,1,70,"Low",3320,2,22
"B",57,0,2627,0,70,"Low",3336,2,22
"B",88,0,1284,0,70,"Low",3367,2,22
"B",21,1,717,1,70,"Low",3301,2,22
"B",17,1,1976,1,70,"Low",3297,2,22
"B",64,1,1536,0,70,"Low",3343,2,22
"B",15,1,1404,1,70,"Low",3295,2,22
"B",47,1,1469,1,70,"Low",3326,2,22
"B",5,1,11972,1,70,"Low",3285,2,22
"B",11,1,1035,1,70,"Low",3291,2,22
"B",72,1,2965,1,70,"Low",3351,2,22
"B",96,1,875,1,70,"Low",3375,2,22
"B",75,1,1118,1,70,"Low",3354,2,22
"C",63,0,3696,1,30,"Low",3342,0,22
"C",52,1,123,0,30,"Low",3331,0,22
"C",27,1,210,0,30,"Low",3306,0,22
"C",98,0,1322,0,30,"Low",3377,0,22
"C",59,1,973,1,30,"Low",3338,0,22
"C",73,1,2135,0,30,"Low",3352,0,22
"C",34,1,1705,0,30,"Low",3313,0,22
"C",22,1,245,0,30,"Low",3302,0,22
"C",65,1,1720,0,30,"Low",3344,0,22
"C",32,0,377,1,30,"Low",3311,0,22
"C",18,0,4545,1,30,"Low",3298,0,22
"C",93,1,1512,0,30,"Low",3372,0,22
"C",37,1,909,0,30,"Low",3316,0,22
"C",91,1,400,1,30,"Low",3370,0,22
"C",70,0,1443,1,30,"Low",3349,0,22
"C",14,1,1004,0,30,"Low",3294,0,22
"C",9,0,1294,0,30,"Low",3289,0,22
"C",56,1,805,1,30,"Low",3335,0,22
"C",43,0,2259,0,30,"Low",3322,0,22
"C",2,0,15337,1,30,"Low",3282,0,22
"C",79,1,828,0,30,"Low",3358,0,22
"C",6,1,6175,1,30,"Low",3286,0,22
"C",48,1,2964,1,30,"Low",3327,0,22
"C",87,0,1393,1,30,"Low",3366,0,22
"C",81,1,2021,0,30,"Low",3360,0,22
"D",26,1,334,1,70,"High",3305,0,22
"D",35,1,859,1,70,"High",3314,0,22
"D",66,1,821,1,70,"High",3345,0,22
"D",92,1,709,1,70,"High",3371,0,22
"D",29,1,1296,1,70,"High",3308,0,22
"D",69,1,997,1,70,"High",3348,0,22
"D",16,1,1299,1,70,"High",3296,0,22
"D",97,0,5710,0,70,"High",3376,0,22
"D",1,1,31730,1,70,"High",3281,0,22
"D",20,1,12749,0,70,"High",3300,0,22
"D",61,1,694,1,70,"High",3340,0,22
"D",76,1,2102,0,70,"High",3355,0,22
"D",53,1,688,1,70,"High",3332,0,22
"D",45,1,371,1,70,"High",3324,0,22
"D",8,0,2506,1,70,"High",3288,0,22
"D",95,1,478,1,70,"High",3374,0,22
"D",42,1,4505,1,70,"High",3321,0,22
"D",12,1,3366,1,70,"High",3292,0,22
"D",50,0,2826,0,70,"High",3329,0,22
"D",58,1,1067,0,70,"High",3337,0,22
"D",82,1,1285,0,70,"High",3361,0,22
"D",86,1,6890,1,70,"High",3365,0,22
"D",39,1,1459,1,70,"High",3318,0,22
"D",78,0,1542,1,70,"High",3357,0,22
"A",6,0,3094,0,30,"High",5462,1,23
"A",37,0,1254,0,30,"High",5493,1,23
"A",79,0,34,0,30,"High",5535,1,23
"A",41,0,311,0,30,"High",5497,1,23
"A",88,1,2580,0,30,"High",5544,1,23
"A",27,1,725,0,30,"High",5483,1,23
"A",74,1,3485,0,30,"High",5530,1,23
"A",35,0,1176,0,30,"High",5491,1,23
"A",4,1,2075,0,30,"High",5460,1,23
"A",23,0,1138,0,30,"High",5479,1,23
"A",63,1,693,1,30,"High",5519,1,23
"A",20,1,840,0,30,"High",5476,1,23
"A",90,1,357,0,30,"High",5546,1,23
"A",82,1,3746,0,30,"High",5538,1,23
"A",54,1,893,0,30,"High",5510,1,23
"A",70,1,647,1,30,"High",5526,1,23
"A",30,1,749,0,30,"High",5486,1,23
"A",16,1,907,1,30,"High",5472,1,23
"A",98,1,302,1,30,"High",5554,1,23
"A",46,0,359,0,30,"High",5502,1,23
"A",59,1,425,1,30,"High",5515,1,23
"A",12,0,1046,1,30,"High",5468,1,23
"A",52,1,6211,0,30,"High",5508,1,23
"A",67,0,180,0,30,"High",5523,1,23
"A",95,0,683,1,30,"High",5551,1,23
"B",8,1,933,0,70,"Low",5464,1,23
"B",2,1,1858,1,70,"Low",5458,1,23
"B",19,0,657,1,70,"Low",5475,1,23
"B",99,1,456,1,70,"Low",5555,1,23
"B",76,0,43,1,70,"Low",5532,1,23
"B",68,1,330,0,70,"Low",5524,1,23
"B",28,1,875,1,70,"Low",5484,1,23
"B",78,1,287,0,70,"Low",5534,1,23
"B",38,1,517,0,70,"Low",5494,1,23
"B",48,0,782,1,70,"Low",5504,1,23
"B",32,1,399,1,70,"Low",5488,1,23
"B",14,1,3263,0,70,"Low",5470,1,23
"B",62,0,277,1,70,"Low",5518,1,23
"B",72,0,344,1,70,"Low",5528,1,23
"B",53,0,348,1,70,"Low",5509,1,23
"B",87,0,417,1,70,"Low",5543,1,23
"B",94,0,816,0,70,"Low",5550,1,23
"B",11,0,1171,1,70,"Low",5467,1,23
"B",34,1,676,1,70,"Low",5490,1,23
"B",81,0,1594,1,70,"Low",5537,1,23
"B",58,0,333,1,70,"Low",5514,1,23
"B",43,1,3973,0,70,"Low",5499,1,23
"B",51,1,795,1,70,"Low",5507,1,23
"B",92,1,884,0,70,"Low",5548,1,23
"B",24,1,1382,1,70,"Low",5480,1,23
"C",60,1,1169,1,30,"Low",5516,1,23
"C",69,1,622,0,30,"Low",5525,1,23
"C",9,1,4433,1,30,"Low",5465,1,23
"C",84,0,12,1,30,"Low",5540,1,23
"C",45,1,2567,0,30,"Low",5501,1,23
"C",86,1,2642,0,30,"Low",5542,1,23
"C",3,1,3204,0,30,"Low",5459,1,23
"C",75,1,10212,0,30,"Low",5531,1,23
"C",49,1,364,1,30,"Low",5505,1,23
"C",33,1,565,0,30,"Low",5489,1,23
"C",91,1,2199,0,30,"Low",5547,1,23
"C",21,1,1323,0,30,"Low",5477,1,23
"C",66,0,242,1,30,"Low",5522,1,23
"C",13,1,417,0,30,"Low",5469,1,23
"C",29,1,1527,1,30,"Low",5485,1,23
"C",56,1,365,0,30,"Low",5512,1,23
"C",40,1,321,0,30,"Low",5496,1,23
"C",25,1,8467,0,30,"Low",5481,1,23
"C",100,1,49,1,30,"Low",5556,1,23
"C",7,0,11610,0,30,"Low",5463,1,23
"C",96,1,56,0,30,"Low",5552,1,23
"C",80,1,1500,0,30,"Low",5536,1,23
"C",64,1,1414,0,30,"Low",5520,1,23
"C",42,1,795,1,30,"Low",5498,1,23
"C",18,0,545,0,30,"Low",5474,1,23
"D",83,0,306,1,70,"High",5539,1,23
"D",1,1,3799,0,70,"High",5457,1,23
"D",85,1,285,1,70,"High",5541,1,23
"D",44,0,674,0,70,"High",5500,1,23
"D",5,1,1687,1,70,"High",5461,1,23
"D",31,1,860,0,70,"High",5487,1,23
"D",89,0,426,1,70,"High",5545,1,23
"D",47,1,571,0,70,"High",5503,1,23
"D",77,1,357,1,70,"High",5533,1,23
"D",26,1,1665,0,70,"High",5482,1,23
"D",57,0,81,1,70,"High",5513,1,23
"D",71,1,9493,0,70,"High",5527,1,23
"D",97,0,283,0,70,"High",5553,1,23
"D",73,1,333,1,70,"High",5529,1,23
"D",36,1,1761,1,70,"High",5492,1,23
"D",10,1,2669,1,70,"High",5466,1,23
"D",50,1,1238,0,70,"High",5506,1,23
"D",61,0,1149,1,70,"High",5517,1,23
"D",17,1,716,1,70,"High",5473,1,23
"D",22,1,752,1,70,"High",5478,1,23
"D",15,1,1018,1,70,"High",5471,1,23
"D",39,1,360,0,70,"High",5495,1,23
"D",93,1,2156,0,70,"High",5549,1,23
"D",65,0,386,1,70,"High",5521,1,23
"D",55,0,262,1,70,"High",5511,1,23
"A",32,1,996,0,30,"High",3112,3,24
"A",71,1,465,0,30,"High",3151,3,24
"A",93,1,1250,1,30,"High",3173,3,24
"A",44,0,754,0,30,"High",3124,3,24
"A",83,0,1309,0,30,"High",3163,3,24
"A",48,0,1604,0,30,"High",3128,3,24
"A",24,0,1258,0,30,"High",3104,3,24
"A",64,1,652,0,30,"High",3144,3,24
"A",52,1,693,1,30,"High",3132,3,24
"A",12,1,921,0,30,"High",3092,3,24
"A",59,0,1739,0,30,"High",3139,3,24
"A",20,1,702,1,30,"High",3100,3,24
"A",89,0,4650,0,30,"High",3169,3,24
"A",14,1,1708,0,30,"High",3094,3,24
"A",67,1,647,0,30,"High",3147,3,24
"A",87,0,720,0,30,"High",3167,3,24
"A",98,0,657,0,30,"High",3178,3,24
"A",73,0,580,0,30,"High",3153,3,24
"A",77,0,1198,1,30,"High",3157,3,24
"A",38,0,2395,0,30,"High",3118,3,24
"A",34,1,4271,0,30,"High",3114,3,24
"A",55,0,737,0,30,"High",3135,3,24
"A",7,1,1253,1,30,"High",3087,3,24
"A",1,0,2465,1,30,"High",3081,3,24
"A",27,0,1412,0,30,"High",3107,3,24
"B",21,0,3581,1,70,"Low",3101,0,24
"B",61,1,751,0,70,"Low",3141,0,24
"B",45,0,940,1,70,"Low",3125,0,24
"B",31,0,1290,1,70,"Low",3111,0,24
"B",90,1,535,1,70,"Low",3170,0,24
"B",33,0,2574,0,70,"Low",3113,0,24
"B",37,0,1851,1,70,"Low",3117,0,24
"B",13,1,2937,0,70,"Low",3093,0,24
"B",84,0,379,0,70,"Low",3164,0,24
"B",10,0,1072,1,70,"Low",3090,0,24
"B",100,0,430,0,70,"Low",3180,0,24
"B",68,0,604,1,70,"Low",3148,0,24
"B",2,1,1626,1,70,"Low",3082,0,24
"B",6,1,1392,0,70,"Low",3086,0,24
"B",70,0,517,1,70,"Low",3150,0,24
"B",57,0,540,1,70,"Low",3137,0,24
"B",88,1,678,1,70,"Low",3168,0,24
"B",50,1,597,1,70,"Low",3130,0,24
"B",17,0,2047,1,70,"Low",3097,0,24
"B",28,0,1019,1,70,"Low",3108,0,24
"B",95,1,578,1,70,"Low",3175,0,24
"B",80,0,447,1,70,"Low",3160,0,24
"B",53,0,592,1,70,"Low",3133,0,24
"B",41,1,2864,1,70,"Low",3121,0,24
"B",75,0,1107,1,70,"Low",3155,0,24
"C",65,0,869,0,30,"Low",3145,1,24
"C",25,0,1766,0,30,"Low",3105,1,24
"C",19,0,2201,1,30,"Low",3099,1,24
"C",8,1,2217,0,30,"Low",3088,1,24
"C",23,1,1579,1,30,"Low",3103,1,24
"C",86,0,831,0,30,"Low",3166,1,24
"C",72,0,3324,0,30,"Low",3152,1,24
"C",35,0,872,0,30,"Low",3115,1,24
"C",63,0,1026,1,30,"Low",3143,1,24
"C",51,0,2150,1,30,"Low",3131,1,24
"C",11,0,1301,1,30,"Low",3091,1,24
"C",96,0,655,0,30,"Low",3176,1,24
"C",47,0,1060,0,30,"Low",3127,1,24
"C",99,1,615,0,30,"Low",3179,1,24
"C",30,0,1285,0,30,"Low",3110,1,24
"C",60,0,328,1,30,"Low",3140,1,24
"C",42,0,1089,1,30,"Low",3122,1,24
"C",82,0,7840,0,30,"Low",3162,1,24
"C",4,1,1180,0,30,"Low",3084,1,24
"C",76,1,587,0,30,"Low",3156,1,24
"C",92,1,545,0,30,"Low",3172,1,24
"C",56,0,972,0,30,"Low",3136,1,24
"C",15,1,1485,1,30,"Low",3095,1,24
"C",40,0,888,1,30,"Low",3120,1,24
"C",78,1,2396,0,30,"Low",3158,1,24
"D",62,0,1947,1,70,"High",3142,3,24
"D",18,1,2552,0,70,"High",3098,3,24
"D",36,1,2499,1,70,"High",3116,3,24
"D",26,1,1371,1,70,"High",3106,3,24
"D",85,1,929,1,70,"High",3165,3,24
"D",69,0,785,1,70,"High",3149,3,24
"D",22,0,1592,1,70,"High",3102,3,24
"D",94,0,1040,0,70,"High",3174,3,24
"D",5,1,2876,1,70,"High",3085,3,24
"D",49,0,477,1,70,"High",3129,3,24
"D",3,0,4235,1,70,"High",3083,3,24
"D",97,1,640,1,70,"High",3177,3,24
"D",29,1,1270,1,70,"High",3109,3,24
"D",58,1,657,1,70,"High",3138,3,24
"D",54,1,1083,1,70,"High",3134,3,24
"D",46,1,3291,1,70,"High",3126,3,24
"D",9,1,1566,1,70,"High",3089,3,24
"D",91,0,2370,1,70,"High",3171,3,24
"D",16,1,1138,0,70,"High",3096,3,24
"D",66,0,692,1,70,"High",3146,3,24
"D",79,0,306,1,70,"High",3159,3,24
"D",81,1,697,1,70,"High",3161,3,24
"D",43,1,1308,1,70,"High",3123,3,24
"D",74,1,1078,1,70,"High",3154,3,24
"D",39,1,794,1,70,"High",3119,3,24
"A",21,1,1436,1,30,"High",1810,1,25
"A",8,1,617,0,30,"High",1797,1,25
"A",88,0,6342,0,30,"High",1877,1,25
"A",30,1,2296,0,30,"High",1819,1,25
"A",47,1,103,0,30,"High",1836,1,25
"A",61,1,182,1,30,"High",1850,1,25
"A",58,0,66,1,30,"High",1847,1,25
"A",34,1,528,1,30,"High",1823,1,25
"A",4,1,1701,1,30,"High",1793,1,25
"A",71,1,438,0,30,"High",1860,1,25
"A",82,1,111,1,30,"High",1871,1,25
"A",96,1,553,0,30,"High",1885,1,25
"A",17,1,495,1,30,"High",1806,1,25
"A",98,0,622,1,30,"High",1887,1,25
"A",50,0,257,0,30,"High",1839,1,25
"A",68,1,992,0,30,"High",1857,1,25
"A",76,1,7578,0,30,"High",1865,1,25
"A",53,0,108,0,30,"High",1842,1,25
"A",44,1,109,0,30,"High",1833,1,25
"A",14,0,928,0,30,"High",1803,1,25
"A",92,0,339,1,30,"High",1881,1,25
"A",27,1,930,1,30,"High",1816,1,25
"A",80,1,403,0,30,"High",1869,1,25
"A",40,1,612,0,30,"High",1829,1,25
"A",12,1,1366,1,30,"High",1801,1,25
"B",86,0,10600,0,70,"Low",1875,2,25
"B",49,0,365,1,70,"Low",1838,2,25
"B",97,0,479,1,70,"Low",1886,2,25
"B",7,1,1154,1,70,"Low",1796,2,25
"B",62,0,10720,1,70,"Low",1851,2,25
"B",26,0,1381,1,70,"Low",1815,2,25
"B",45,1,137,0,70,"Low",1834,2,25
"B",54,0,103,1,70,"Low",1843,2,25
"B",18,0,1296,1,70,"Low",1807,2,25
"B",60,0,353,1,70,"Low",1849,2,25
"B",91,1,654,1,70,"Low",1880,2,25
"B",42,1,141,0,70,"Low",1831,2,25
"B",84,1,7592,1,70,"Low",1873,2,25
"B",3,1,4615,1,70,"Low",1792,2,25
"B",38,0,1177,1,70,"Low",1827,2,25
"B",15,0,1376,1,70,"Low",1804,2,25
"B",11,0,1574,0,70,"Low",1800,2,25
"B",94,0,34220,0,70,"Low",1883,2,25
"B",72,0,217,0,70,"Low",1861,2,25
"B",74,0,981,1,70,"Low",1863,2,25
"B",77,0,222,1,70,"Low",1866,2,25
"B",31,1,755,0,70,"Low",1820,2,25
"B",67,1,699,1,70,"Low",1856,2,25
"B",35,0,1346,1,70,"Low",1824,2,25
"B",24,1,783,1,70,"Low",1813,2,25
"C",19,1,1117,0,30,"Low",1808,2,25
"C",85,0,674,0,30,"Low",1874,2,25
"C",59,1,138,0,30,"Low",1848,2,25
"C",48,1,605,0,30,"Low",1837,2,25
"C",13,1,711,0,30,"Low",1802,2,25
"C",6,1,2296,1,30,"Low",1795,2,25
"C",43,1,95,0,30,"Low",1832,2,25
"C",83,0,7711,0,30,"Low",1872,2,25
"C",69,1,693,0,30,"Low",1858,2,25
"C",90,1,1045,1,30,"Low",1879,2,25
"C",32,1,251,0,30,"Low",1821,2,25
"C",28,1,16016,0,30,"Low",1817,2,25
"C",93,1,213,0,30,"Low",1882,2,25
"C",2,1,6014,1,30,"Low",1791,2,25
"C",63,0,534,0,30,"Low",1852,2,25
"C",23,0,3956,1,30,"Low",1812,2,25
"C",100,1,1316,0,30,"Low",1889,2,25
"C",52,0,125,0,30,"Low",1841,2,25
"C",73,1,348,1,30,"Low",1862,2,25
"C",36,1,980,0,30,"Low",1825,2,25
"C",9,0,5803,0,30,"Low",1798,2,25
"C",56,0,189,0,30,"Low",1845,2,25
"C",65,0,577,0,30,"Low",1854,2,25
"C",79,0,220,0,30,"Low",1868,2,25
"C",39,1,1491,0,30,"Low",1828,2,25
"D",46,1,69,1,70,"High",1835,4,25
"D",99,1,474,0,70,"High",1888,4,25
"D",20,1,837,1,70,"High",1809,4,25
"D",10,0,1351,1,70,"High",1799,4,25
"D",70,0,131,1,70,"High",1859,4,25
"D",81,0,25,1,70,"High",1870,4,25
"D",89,1,7191,1,70,"High",1878,4,25
"D",5,1,1679,1,70,"High",1794,4,25
"D",16,0,1499,1,70,"High",1805,4,25
"D",1,0,2900,0,70,"High",1790,4,25
"D",87,0,756,1,70,"High",1876,4,25
"D",51,0,109,1,70,"High",1840,4,25
"D",22,0,2301,1,70,"High",1811,4,25
"D",66,0,1850,0,70,"High",1855,4,25
"D",55,1,42,1,70,"High",1844,4,25
"D",95,1,271,1,70,"High",1884,4,25
"D",57,0,41,0,70,"High",1846,4,25
"D",75,1,646,1,70,"High",1864,4,25
"D",41,1,178,0,70,"High",1830,4,25
"D",64,0,516,1,70,"High",1853,4,25
"D",29,1,1299,1,70,"High",1818,4,25
"D",37,1,414,1,70,"High",1826,4,25
"D",78,1,218,0,70,"High",1867,4,25
"D",33,1,58,0,70,"High",1822,4,25
"D",25,0,3438,1,70,"High",1814,4,25
"A",30,1,2352,0,30,"High",3506,3,26
"A",21,0,2145,0,30,"High",3498,3,26
"A",17,0,1544,0,30,"High",3494,3,26
"A",74,1,772,0,30,"High",3550,3,26
"A",15,1,4547,0,30,"High",3492,3,26
"A",33,1,8860,1,30,"High",3509,3,26
"A",65,1,924,1,30,"High",3541,3,26
"A",63,1,1481,0,30,"High",3539,3,26
"A",99,0,1856,0,30,"High",3575,3,26
"A",60,0,1340,1,30,"High",3536,3,26
"A",70,1,1322,1,30,"High",3546,3,26
"A",39,1,11969,0,30,"High",3515,3,26
"A",27,0,1180,0,30,"High",3503,3,26
"A",53,1,621,0,30,"High",3529,3,26
"A",45,1,1605,0,30,"High",3521,3,26
"A",42,0,946,1,30,"High",3518,3,26
"A",84,1,624,0,30,"High",3560,3,26
"A",4,1,1206,0,30,"High",3482,3,26
"A",79,1,2056,0,30,"High",3555,3,26
"A",49,0,1344,0,30,"High",3525,3,26
"A",6,1,1673,1,30,"High",3484,3,26
"A",88,1,466,0,30,"High",3564,3,26
"A",93,1,1629,1,30,"High",3569,3,26
"A",91,1,7297,1,30,"High",3567,3,26
"A",11,1,1953,0,30,"High",3488,3,26
"B",61,1,1165,1,70,"Low",3537,1,26
"B",76,1,1187,1,70,"Low",3552,1,26
"B",19,1,1237,1,70,"Low",3496,1,26
"B",72,1,1085,1,70,"Low",3548,1,26
"B",68,1,4047,0,70,"Low",3544,1,26
"B",2,1,1493,1,70,"Low",3480,1,26
"B",81,0,2882,1,70,"Low",3557,1,26
"B",44,1,1104,1,70,"Low",3520,1,26
"B",95,1,801,1,70,"Low",3571,1,26
"B",59,1,1737,1,70,"Low",3535,1,26
"B",36,1,1657,1,70,"Low",3512,1,26
"B",47,0,3752,0,70,"Low",3523,1,26
"B",51,0,651,1,70,"Low",3527,1,26
"B",26,1,5277,1,70,"Low",3502,1,26
"B",56,0,1690,1,70,"Low",3532,1,26
"B",38,1,2829,1,70,"Low",3514,1,26
"B",29,1,662,1,70,"Low",3505,1,26
"B",13,1,874,1,70,"Low",3490,1,26
"B",85,1,900,1,70,"Low",3561,1,26
"B",97,0,1244,1,70,"Low",3573,1,26
"B",10,1,2180,0,70,"Low",3487,1,26
"B",78,0,1980,0,70,"Low",3554,1,26
"B",8,1,875,0,70,"Low",3485,1,26
"B",92,1,6324,1,70,"Low",3568,1,26
"C",73,0,1962,0,30,"Low",3549,2,26
"C",82,1,838,0,30,"Low",3558,2,26
"C",100,0,1629,0,30,"Low",3576,2,26
"C",32,1,595,0,30,"Low",3508,2,26
"C",14,1,884,0,30,"Low",3491,2,26
"C",62,0,22925,0,30,"Low",3538,2,26
"C",54,1,720,1,30,"Low",3530,2,26
"C",1,1,2413,1,30,"Low",3479,2,26
"C",34,1,1063,0,30,"Low",3510,2,26
"C",52,1,768,0,30,"Low",3528,2,26
"C",67,1,988,1,30,"Low",3543,2,26
"C",48,1,973,1,30,"Low",3524,2,26
"C",57,1,1509,0,30,"Low",3533,2,26
"C",18,1,904,0,30,"Low",3495,2,26
"C",43,1,464,0,30,"Low",3519,2,26
"C",87,1,495,0,30,"Low",3563,2,26
"C",69,1,1038,0,30,"Low",3545,2,26
"C",28,0,1460,0,30,"Low",3504,2,26
"C",24,1,1986,0,30,"Low",3500,2,26
"C",90,1,585,1,30,"Low",3566,2,26
"C",40,1,1361,0,30,"Low",3516,2,26
"C",9,1,4734,0,30,"Low",3486,2,26
"C",80,1,1015,0,30,"Low",3556,2,26
"C",94,0,1416,0,30,"Low",3570,2,26
"D",75,0,988,1,70,"High",3551,1,26
"D",66,0,1936,0,70,"High",3542,1,26
"D",64,0,1726,0,70,"High",3540,1,26
"D",41,0,1037,1,70,"High",3517,1,26
"D",83,0,1762,1,70,"High",3559,1,26
"D",58,1,3601,1,70,"High",3534,1,26
"D",16,1,1447,1,70,"High",3493,1,26
"D",86,1,707,0,70,"High",3562,1,26
"D",22,1,1586,1,70,"High",3499,1,26
"D",77,1,10299,1,70,"High",3553,1,26
"D",20,0,1324,1,70,"High",3497,1,26
"D",31,0,1570,0,70,"High",3507,1,26
"D",37,0,1064,0,70,"High",3513,1,26
"D",71,0,969,1,70,"High",3547,1,26
"D",3,0,4393,1,70,"High",3481,1,26
"D",5,0,3631,0,70,"High",3483,1,26
"D",55,1,1012,1,70,"High",3531,1,26
"D",96,1,1527,1,70,"High",3572,1,26
"D",46,1,1794,1,70,"High",3522,1,26
"D",25,0,1418,1,70,"High",3501,1,26
"D",98,1,858,1,70,"High",3574,1,26
"D",12,0,819,0,70,"High",3489,1,26
"D",50,0,640,1,70,"High",3526,1,26
"D",35,1,1263,1,70,"High",3511,1,26
"D",89,0,416,0,70,"High",3565,1,26
"A",76,0,376,1,30,"High",1765,0,27
"A",19,1,458,0,30,"High",1709,0,27
"A",34,0,274,0,30,"High",1723,0,27
"A",40,1,347,1,30,"High",1729,0,27
"A",31,1,535,0,30,"High",1720,0,27
"A",79,0,308,1,30,"High",1768,0,27
"A",69,1,435,0,30,"High",1758,0,27
"A",85,1,260,0,30,"High",1774,0,27
"A",97,0,336,0,30,"High",1786,0,27
"A",11,0,353,1,30,"High",1701,0,27
"A",57,1,298,0,30,"High",1746,0,27
"A",62,0,376,0,30,"High",1751,0,27
"A",22,0,297,1,30,"High",1712,0,27
"A",2,1,1693,1,30,"High",1692,0,27
"A",25,1,344,0,30,"High",1715,0,27
"A",81,1,349,0,30,"High",1770,0,27
"A",44,1,432,1,30,"High",1733,0,27
"A",47,1,273,1,30,"High",1736,0,27
"A",16,0,348,0,30,"High",1706,0,27
"A",54,0,697,0,30,"High",1743,0,27
"A",89,0,528,0,30,"High",1778,0,27
"A",67,0,388,0,30,"High",1756,0,27
"A",51,1,337,0,30,"High",1740,0,27
"A",93,0,288,1,30,"High",1782,0,27
"A",5,1,1362,1,30,"High",1695,0,27
"B",32,1,277,0,70,"Low",1721,0,27
"B",64,1,286,0,70,"Low",1753,0,27
"B",21,1,281,1,70,"Low",1711,0,27
"B",75,0,484,1,70,"Low",1764,0,27
"B",78,1,395,1,70,"Low",1767,0,27
"B",9,1,454,1,70,"Low",1699,0,27
"B",68,0,270,1,70,"Low",1757,0,27
"B",48,1,277,1,70,"Low",1737,0,27
"B",90,1,422,0,70,"Low",1779,0,27
"B",38,0,278,1,70,"Low",1727,0,27
"B",6,1,783,1,70,"Low",1696,0,27
"B",52,1,331,0,70,"Low",1741,0,27
"B",71,0,347,1,70,"Low",1760,0,27
"B",83,0,571,0,70,"Low",1772,0,27
"B",99,1,341,0,70,"Low",1788,0,27
"B",36,1,281,0,70,"Low",1725,0,27
"B",86,1,348,1,70,"Low",1775,0,27
"B",4,0,471,0,70,"Low",1694,0,27
"B",95,1,332,1,70,"Low",1784,0,27
"B",59,0,312,1,70,"Low",1748,0,27
"B",13,1,282,1,70,"Low",1703,0,27
"B",42,0,363,1,70,"Low",1731,0,27
"B",18,1,289,0,70,"Low",1708,0,27
"B",56,1,843,1,70,"Low",1745,0,27
"C",28,1,809,0,30,"Low",1717,0,27
"C",80,0,349,0,30,"Low",1769,0,27
"C",82,1,327,0,30,"Low",1771,0,27
"C",87,1,310,1,30,"Low",1776,0,27
"C",37,0,288,0,30,"Low",1726,0,27
"C",74,1,433,1,30,"Low",1763,0,27
"C",63,0,326,0,30,"Low",1752,0,27
"C",91,1,290,0,30,"Low",1780,0,27
"C",66,1,338,1,30,"Low",1755,0,27
"C",30,0,314,0,30,"Low",1719,0,27
"C",3,0,945,0,30,"Low",1693,0,27
"C",43,1,468,0,30,"Low",1732,0,27
"C",72,0,294,1,30,"Low",1761,0,27
"C",35,1,327,0,30,"Low",1724,0,27
"C",46,0,295,1,30,"Low",1735,0,27
"C",100,0,330,1,30,"Low",1789,0,27
"C",60,1,328,0,30,"Low",1749,0,27
"C",24,0,305,1,30,"Low",1714,0,27
"C",50,0,277,1,30,"Low",1739,0,27
"C",7,0,374,1,30,"Low",1697,0,27
"C",53,0,404,0,30,"Low",1742,0,27
"C",12,0,222,0,30,"Low",1702,0,27
"C",94,1,260,1,30,"Low",1783,0,27
"C",17,1,313,0,30,"Low",1707,0,27
"C",14,1,384,1,30,"Low",1704,0,27
"D",41,0,1136,0,70,"High",1730,0,27
"D",77,1,387,1,70,"High",1766,0,27
"D",23,0,281,1,70,"High",1713,0,27
"D",98,1,330,0,70,"High",1787,0,27
"D",58,0,290,1,70,"High",1747,0,27
"D",65,1,345,1,70,"High",1754,0,27
"D",39,1,323,1,70,"High",1728,0,27
"D",49,0,350,1,70,"High",1738,0,27
"D",26,1,261,0,70,"High",1716,0,27
"D",33,0,239,1,70,"High",1722,0,27
"D",73,1,379,1,70,"High",1762,0,27
"D",61,1,433,1,70,"High",1750,0,27
"D",15,0,338,1,70,"High",1705,0,27
"D",8,0,366,1,70,"High",1698,0,27
"D",20,1,281,1,70,"High",1710,0,27
"D",29,0,346,1,70,"High",1718,0,27
"D",70,1,299,0,70,"High",1759,0,27
"D",10,1,465,0,70,"High",1700,0,27
"D",92,0,311,1,70,"High",1781,0,27
"D",45,0,585,1,70,"High",1734,0,27
"D",1,1,3064,1,70,"High",1691,0,27
"D",55,0,454,0,70,"High",1744,0,27
"D",84,0,355,1,70,"High",1773,0,27
"D",88,0,339,1,70,"High",1777,0,27
"D",96,0,335,1,70,"High",1785,0,27
"A",86,1,461,1,30,"High",582,3,28
"A",91,1,320,0,30,"High",587,3,28
"A",77,1,1211,0,30,"High",573,3,28
"A",13,1,2532,0,30,"High",511,3,28
"A",82,0,1225,0,30,"High",578,3,28
"A",9,1,3765,1,30,"High",507,3,28
"A",40,1,472,0,30,"High",538,3,28
"A",93,1,782,0,30,"High",589,3,28
"A",44,0,282,0,30,"High",542,3,28
"A",19,1,953,0,30,"High",517,3,28
"A",100,1,385,0,30,"High",596,3,28
"A",54,1,883,0,30,"High",551,3,28
"A",23,1,1308,0,30,"High",521,3,28
"A",34,1,250,1,30,"High",532,3,28
"A",61,1,589,1,30,"High",558,3,28
"A",46,1,335,0,30,"High",544,3,28
"A",69,1,1331,0,30,"High",565,3,28
"A",67,1,682,0,30,"High",563,3,28
"A",74,0,999,0,30,"High",570,3,28
"A",3,1,1806,0,30,"High",501,3,28
"A",7,0,1166,0,30,"High",505,3,28
"A",58,1,503,0,30,"High",555,3,28
"A",30,1,453,1,30,"High",528,3,28
"A",28,0,1082,0,30,"High",526,3,28
"B",1,0,3651,1,70,"Low",499,1,28
"B",55,1,257,1,70,"Low",552,1,28
"B",83,1,866,1,70,"Low",579,1,28
"B",12,0,1103,1,70,"Low",510,1,28
"B",6,0,2728,1,70,"Low",504,1,28
"B",96,1,1474,1,70,"Low",592,1,28
"B",32,1,224,1,70,"Low",530,1,28
"B",49,0,368,1,70,"Low",547,1,28
"B",17,1,3049,1,70,"Low",515,1,28
"B",15,1,922,1,70,"Low",513,1,28
"B",26,0,1013,0,70,"Low",524,1,28
"B",24,0,1023,1,70,"Low",522,1,28
"B",80,1,825,0,70,"Low",576,1,28
"B",36,0,615,1,70,"Low",534,1,28
"B",47,0,132,1,70,"Low",545,1,28
"B",57,0,1237,1,70,"Low",554,1,28
"B",70,0,2657,1,70,"Low",566,1,28
"B",92,1,665,1,70,"Low",588,1,28
"B",43,1,419,1,70,"Low",541,1,28
"B",73,0,1785,1,70,"Low",569,1,28
"B",38,0,664,1,70,"Low",536,1,28
"B",63,0,1286,1,70,"Low",560,1,28
"B",88,1,254,1,70,"Low",584,1,28
"B",99,0,471,1,70,"Low",595,1,28
"C",51,0,306,1,30,"Low",549,0,28
"C",14,1,1383,0,30,"Low",512,0,28
"C",41,0,283,1,30,"Low",539,0,28
"C",78,0,865,0,30,"Low",574,0,28
"C",48,1,77,1,30,"Low",546,0,28
"C",53,1,2075,0,30,"Low",550,0,28
"C",64,0,1205,1,30,"Low",561,0,28
"C",66,1,1943,1,30,"Low",562,0,28
"C",95,0,1408,0,30,"Low",591,0,28
"C",81,0,995,0,30,"Low",577,0,28
"C",85,0,700,0,30,"Low",581,0,28
"C",98,1,2488,1,30,"Low",594,0,28
"C",90,0,665,0,30,"Low",586,0,28
"C",4,0,1794,0,30,"Low",502,0,28
"C",11,0,683,1,30,"Low",509,0,28
"C",25,1,709,1,30,"Low",523,0,28
"C",59,1,776,1,30,"Low",556,0,28
"C",33,0,332,1,30,"Low",531,0,28
"C",39,1,862,1,30,"Low",537,0,28
"C",8,0,960,0,30,"Low",506,0,28
"C",18,0,1687,0,30,"Low",516,0,28
"C",21,0,1741,1,30,"Low",519,0,28
"C",72,1,724,1,30,"Low",568,0,28
"C",76,1,1024,0,30,"Low",572,0,28
"C",31,0,263,0,30,"Low",529,0,28
"D",22,1,1216,1,70,"High",520,3,28
"D",10,1,1800,1,70,"High",508,3,28
"D",2,1,2882,1,70,"High",500,3,28
"D",5,1,3309,1,70,"High",503,3,28
"D",89,1,383,1,70,"High",585,3,28
"D",16,1,557,1,70,"High",514,3,28
"D",37,1,410,1,70,"High",535,3,28
"D",20,1,685,1,70,"High",518,3,28
"D",60,1,958,1,70,"High",557,3,28
"D",87,0,145,0,70,"High",583,3,28
"D",94,1,1071,1,70,"High",590,3,28
"D",50,1,147,0,70,"High",548,3,28
"D",56,1,705,1,70,"High",553,3,28
"D",75,1,1050,1,70,"High",571,3,28
"D",84,1,823,1,70,"High",580,3,28
"D",79,1,722,1,70,"High",575,3,28
"D",29,1,359,1,70,"High",527,3,28
"D",97,1,792,1,70,"High",593,3,28
"D",71,1,330,0,70,"High",567,3,28
"D",68,1,679,0,70,"High",564,3,28
"D",35,0,284,1,70,"High",533,3,28
"D",27,1,681,1,70,"High",525,3,28
"D",45,1,293,1,70,"High",543,3,28
"D",62,1,616,1,70,"High",559,3,28
"D",42,1,215,1,70,"High",540,3,28
"A",92,0,716,0,30,"High",2181,3,29
"A",81,0,48,0,30,"High",2170,3,29
"A",63,0,30,0,30,"High",2152,3,29
"A",36,1,231,0,30,"High",2125,3,29
"A",77,0,1355,0,30,"High",2166,3,29
"A",2,0,1838,0,30,"High",2091,3,29
"A",40,0,722,0,30,"High",2129,3,29
"A",43,1,575,0,30,"High",2132,3,29
"A",54,1,450,0,30,"High",2143,3,29
"A",5,0,877,0,30,"High",2094,3,29
"A",95,1,534,0,30,"High",2184,3,29
"A",9,0,401,0,30,"High",2098,3,29
"A",32,0,3149,1,30,"High",2121,3,29
"A",16,1,435,1,30,"High",2105,3,29
"A",74,0,244,1,30,"High",2163,3,29
"A",65,1,24,0,30,"High",2154,3,29
"A",99,1,458,0,30,"High",2188,3,29
"A",21,0,719,0,30,"High",2110,3,29
"A",69,1,8752,0,30,"High",2158,3,29
"A",28,0,1190,0,30,"High",2117,3,29
"A",45,1,283,0,30,"High",2134,3,29
"A",86,1,887,0,30,"High",2175,3,29
"A",59,0,1400,0,30,"High",2148,3,29
"A",18,0,822,1,30,"High",2107,3,29
"A",52,1,432,0,30,"High",2141,3,29
"B",6,1,336,1,70,"Low",2095,4,29
"B",83,0,45,1,70,"Low",2172,4,29
"B",44,0,293,0,70,"Low",2133,4,29
"B",1,1,2056,1,70,"Low",2090,4,29
"B",64,0,4,1,70,"Low",2153,4,29
"B",23,0,2056,1,70,"Low",2112,4,29
"B",46,0,186,1,70,"Low",2135,4,29
"B",68,1,61,1,70,"Low",2157,4,29
"B",80,0,44,1,70,"Low",2169,4,29
"B",85,0,1009,1,70,"Low",2174,4,29
"B",19,0,936,1,70,"Low",2108,4,29
"B",72,0,380,1,70,"Low",2161,4,29
"B",55,0,52,1,70,"Low",2144,4,29
"B",75,1,7189,1,70,"Low",2164,4,29
"B",14,0,201,1,70,"Low",2103,4,29
"B",89,1,8452,1,70,"Low",2178,4,29
"B",39,0,481,0,70,"Low",2128,4,29
"B",12,1,379,1,70,"Low",2101,4,29
"B",30,1,272,1,70,"Low",2119,4,29
"B",96,0,247,1,70,"Low",2185,4,29
"B",27,1,1199,0,70,"Low",2116,4,29
"B",100,1,164,1,70,"Low",2189,4,29
"B",33,0,290,1,70,"Low",2122,4,29
"B",57,0,35,1,70,"Low",2146,4,29
"B",51,0,399,0,70,"Low",2140,4,29
"C",42,1,481,0,30,"Low",2131,1,29
"C",4,1,1160,0,30,"Low",2093,1,29
"C",71,0,2701,1,30,"Low",2160,1,29
"C",73,0,19,0,30,"Low",2162,1,29
"C",84,0,952,1,30,"Low",2173,1,29
"C",38,0,1763,0,30,"Low",2127,1,29
"C",78,0,457,0,30,"Low",2167,1,29
"C",7,0,1350,0,30,"Low",2096,1,29
"C",48,0,1254,0,30,"Low",2137,1,29
"C",67,0,35,1,30,"Low",2156,1,29
"C",26,0,640,0,30,"Low",2115,1,29
"C",31,0,558,1,30,"Low",2120,1,29
"C",93,1,912,0,30,"Low",2182,1,29
"C",56,0,372,0,30,"Low",2145,1,29
"C",15,0,902,0,30,"Low",2104,1,29
"C",10,0,528,0,30,"Low",2099,1,29
"C",17,0,3544,0,30,"Low",2106,1,29
"C",98,1,1492,0,30,"Low",2187,1,29
"C",35,0,322,1,30,"Low",2124,1,29
"C",24,0,427,0,30,"Low",2113,1,29
"C",50,1,463,0,30,"Low",2139,1,29
"C",90,1,5272,0,30,"Low",2179,1,29
"C",62,0,145,0,30,"Low",2151,1,29
"C",87,1,12305,0,30,"Low",2176,1,29
"C",60,0,298,0,30,"Low",2149,1,29
"D",53,0,220,1,70,"High",2142,3,29
"D",79,0,39,1,70,"High",2168,3,29
"D",82,0,46,0,70,"High",2171,3,29
"D",41,0,4047,1,70,"High",2130,3,29
"D",37,1,660,1,70,"High",2126,3,29
"D",47,1,262,1,70,"High",2136,3,29
"D",11,0,368,1,70,"High",2100,3,29
"D",76,0,2664,0,70,"High",2165,3,29
"D",66,0,73,1,70,"High",2155,3,29
"D",25,1,594,1,70,"High",2114,3,29
"D",13,0,326,1,70,"High",2102,3,29
"D",70,1,8,1,70,"High",2159,3,29
"D",29,0,815,0,70,"High",2118,3,29
"D",58,1,333,1,70,"High",2147,3,29
"D",97,1,184,1,70,"High",2186,3,29
"D",8,0,416,1,70,"High",2097,3,29
"D",34,1,284,0,70,"High",2123,3,29
"D",49,0,2338,1,70,"High",2138,3,29
"D",88,1,13100,1,70,"High",2177,3,29
"D",22,0,321,0,70,"High",2111,3,29
"D",3,0,1148,1,70,"High",2092,3,29
"D",91,1,306,1,70,"High",2180,3,29
"D",20,1,1079,1,70,"High",2109,3,29
"D",94,0,382,0,70,"High",2183,3,29
"D",61,1,306,0,70,"High",2150,3,29
"A",10,1,1251,0,30,"High",4381,1,30
"A",77,1,3399,0,30,"High",4448,1,30
"A",63,1,604,0,30,"High",4434,1,30
"A",7,1,1977,0,30,"High",4378,1,30
"A",32,0,417,1,30,"High",4403,1,30
"A",65,1,332,0,30,"High",4436,1,30
"A",71,0,454,0,30,"High",4442,1,30
"A",51,1,704,0,30,"High",4422,1,30
"A",37,0,588,0,30,"High",4408,1,30
"A",55,0,158,0,30,"High",4426,1,30
"A",27,0,461,0,30,"High",4398,1,30
"A",41,1,689,0,30,"High",4412,1,30
"A",45,0,773,0,30,"High",4416,1,30
"A",89,1,277,1,30,"High",4460,1,30
"A",82,1,753,0,30,"High",4453,1,30
"A",34,0,1801,0,30,"High",4405,1,30
"A",13,1,969,0,30,"High",4384,1,30
"A",4,1,1814,0,30,"High",4375,1,30
"A",22,0,121,1,30,"High",4393,1,30
"A",93,0,390,0,30,"High",4464,1,30
"A",59,1,574,0,30,"High",4430,1,30
"A",87,0,307,1,30,"High",4458,1,30
"A",73,1,79,0,30,"High",4444,1,30
"A",98,1,402,0,30,"High",4469,1,30
"A",19,0,792,0,30,"High",4390,1,30
"B",70,0,257,0,70,"Low",4441,4,30
"B",25,0,241,1,70,"Low",4396,4,30
"B",57,1,2371,1,70,"Low",4428,4,30
"B",23,1,212,1,70,"Low",4394,4,30
"B",62,1,330,0,70,"Low",4433,4,30
"B",29,1,217,0,70,"Low",4400,4,30
"B",14,1,398,1,70,"Low",4385,4,30
"B",11,1,1921,1,70,"Low",4382,4,30
"B",67,1,237,1,70,"Low",4438,4,30
"B",97,0,519,1,70,"Low",4468,4,30
"B",20,1,228,1,70,"Low",4391,4,30
"B",54,1,227,0,70,"Low",4425,4,30
"B",95,1,396,1,70,"Low",4466,4,30
"B",75,1,1014,1,70,"Low",4446,4,30
"B",46,1,152,0,70,"Low",4417,4,30
